submission_id,age,beginClicked,comments,correctResponse,correctResponseAttention,delay,delayedUrn,education,experiment_duration,experiment_end_time,experiment_start_time,gameOutcome,gender,languages,leftColor,prolific_pid,prolific_session_id,prolific_study_id,response,responseAttention,responseLeft,responseRight,responseTime,rightColor,structure,submitClicked,trialNr,trialType
2056,37,NA,,lose,NA,NA,NA,Higher degree,430435,1764674829417,1764674398982,NA,female,English,blue,5b421b9ac2e3810001763252,692ecb4d9928d72dfb8d18a9,692d8c586749d81c3a9032e9,lose,NA,NA,NA,69124,green,disjunctive,NA,1,comprehension-1
2056,37,NA,,win,NA,NA,NA,Higher degree,430435,1764674829417,1764674398982,NA,female,English,red,5b421b9ac2e3810001763252,692ecb4d9928d72dfb8d18a9,692d8c586749d81c3a9032e9,win,NA,NA,NA,4268,green,disjunctive,NA,2,comprehension-1
2056,37,NA,,win,NA,NA,NA,Higher degree,430435,1764674829417,1764674398982,NA,female,English,blue,5b421b9ac2e3810001763252,692ecb4d9928d72dfb8d18a9,692d8c586749d81c3a9032e9,win,NA,NA,NA,3148,yellow,disjunctive,NA,3,comprehension-1
2056,37,NA,,win,NA,NA,NA,Higher degree,430435,1764674829417,1764674398982,NA,female,English,red,5b421b9ac2e3810001763252,692ecb4d9928d72dfb8d18a9,692d8c586749d81c3a9032e9,win,NA,NA,NA,2824,yellow,disjunctive,NA,4,comprehension-1
2056,37,1764674574562,,NA,Both balls were released at the same time,simult,none,Higher degree,430435,1764674829417,1764674398982,win,female,English,red,5b421b9ac2e3810001763252,692ecb4d9928d72dfb8d18a9,692d8c586749d81c3a9032e9,NA,The red ball,NA,NA,11922,green,disjunctive,1764674581503,1,training-attention
2056,37,1764674574562,,NA,Both balls were released at the same time,simult,none,Higher degree,430435,1764674829417,1764674398982,win,female,English,red,5b421b9ac2e3810001763252,692ecb4d9928d72dfb8d18a9,692d8c586749d81c3a9032e9,NA,The red ball,6,3,23041,green,disjunctive,1764674592622,1,training
2056,37,1764674594721,,NA,The green ball,short,left,Higher degree,430435,1764674829417,1764674398982,lose,female,English,blue,5b421b9ac2e3810001763252,692ecb4d9928d72dfb8d18a9,692d8c586749d81c3a9032e9,NA,The green ball,NA,NA,9940,green,disjunctive,1764674602562,2,training-attention
2056,37,1764674594721,,NA,The green ball,short,left,Higher degree,430435,1764674829417,1764674398982,lose,female,English,blue,5b421b9ac2e3810001763252,692ecb4d9928d72dfb8d18a9,692d8c586749d81c3a9032e9,NA,The green ball,6,7,18296,green,disjunctive,1764674610918,2,training
2056,37,1764674615305,,NA,NA,short,right,Higher degree,430435,1764674829417,1764674398982,win,female,English,red,5b421b9ac2e3810001763252,692ecb4d9928d72dfb8d18a9,692d8c586749d81c3a9032e9,NA,NA,6,3,19426,yellow,disjunctive,1764674632483,1,critical
2056,37,1764674633810,,NA,NA,short,left,Higher degree,430435,1764674829417,1764674398982,win,female,English,blue,5b421b9ac2e3810001763252,692ecb4d9928d72dfb8d18a9,692d8c586749d81c3a9032e9,NA,NA,2,7,12858,yellow,disjunctive,1764674645342,2,critical
2056,37,1764674646987,,NA,Both balls were released at the same time,simult,none,Higher degree,430435,1764674829417,1764674398982,win,female,English,red,5b421b9ac2e3810001763252,692ecb4d9928d72dfb8d18a9,692d8c586749d81c3a9032e9,NA,Both balls were released at the same time,NA,NA,7378,green,disjunctive,1764674652720,3,critical-attention
2056,37,1764674646987,,NA,Both balls were released at the same time,simult,none,Higher degree,430435,1764674829417,1764674398982,win,female,English,red,5b421b9ac2e3810001763252,692ecb4d9928d72dfb8d18a9,692d8c586749d81c3a9032e9,NA,Both balls were released at the same time,6,3,15072,green,disjunctive,1764674660414,3,critical
2056,37,1764674662315,,NA,NA,long,right,Higher degree,430435,1764674829417,1764674398982,lose,female,English,blue,5b421b9ac2e3810001763252,692ecb4d9928d72dfb8d18a9,692d8c586749d81c3a9032e9,NA,NA,7,5,21474,green,disjunctive,1764674681888,4,critical
2056,37,1764674683265,,NA,NA,long,left,Higher degree,430435,1764674829417,1764674398982,win,female,English,red,5b421b9ac2e3810001763252,692ecb4d9928d72dfb8d18a9,692d8c586749d81c3a9032e9,NA,NA,5,2,17891,green,disjunctive,1764674699779,5,critical
2056,37,1764674701492,,NA,The blue ball,short,right,Higher degree,430435,1764674829417,1764674398982,lose,female,English,blue,5b421b9ac2e3810001763252,692ecb4d9928d72dfb8d18a9,692d8c586749d81c3a9032e9,NA,The blue ball,NA,NA,10861,green,disjunctive,1764674710640,6,critical-attention
2056,37,1764674701492,,NA,The blue ball,short,right,Higher degree,430435,1764674829417,1764674398982,lose,female,English,blue,5b421b9ac2e3810001763252,692ecb4d9928d72dfb8d18a9,692d8c586749d81c3a9032e9,NA,The blue ball,6,6,19969,green,disjunctive,1764674719748,6,critical
2056,37,1764674721303,,NA,NA,simult,none,Higher degree,430435,1764674829417,1764674398982,win,female,English,red,5b421b9ac2e3810001763252,692ecb4d9928d72dfb8d18a9,692d8c586749d81c3a9032e9,NA,NA,6,5,14336,yellow,disjunctive,1764674734084,7,critical
2056,37,1764674735986,,NA,NA,simult,none,Higher degree,430435,1764674829417,1764674398982,lose,female,English,blue,5b421b9ac2e3810001763252,692ecb4d9928d72dfb8d18a9,692d8c586749d81c3a9032e9,NA,NA,7,7,9407,green,disjunctive,1764674743491,8,critical
2056,37,1764674744788,,NA,The red ball,short,right,Higher degree,430435,1764674829417,1764674398982,win,female,English,red,5b421b9ac2e3810001763252,692ecb4d9928d72dfb8d18a9,692d8c586749d81c3a9032e9,NA,The red ball,NA,NA,8552,green,disjunctive,1764674752044,9,critical-attention
2056,37,1764674744788,,NA,The red ball,short,right,Higher degree,430435,1764674829417,1764674398982,win,female,English,red,5b421b9ac2e3810001763252,692ecb4d9928d72dfb8d18a9,692d8c586749d81c3a9032e9,NA,The red ball,6,1,20284,green,disjunctive,1764674763776,9,critical
2056,37,1764674765330,,NA,NA,long,left,Higher degree,430435,1764674829417,1764674398982,win,female,English,red,5b421b9ac2e3810001763252,692ecb4d9928d72dfb8d18a9,692d8c586749d81c3a9032e9,NA,NA,5,6,17166,yellow,disjunctive,1764674780942,10,critical
2056,37,1764674782734,,NA,NA,simult,none,Higher degree,430435,1764674829417,1764674398982,win,female,English,blue,5b421b9ac2e3810001763252,692ecb4d9928d72dfb8d18a9,692d8c586749d81c3a9032e9,NA,NA,2,7,12256,yellow,disjunctive,1764674793198,11,critical
2056,37,1764674794634,,NA,NA,long,right,Higher degree,430435,1764674829417,1764674398982,win,female,English,blue,5b421b9ac2e3810001763252,692ecb4d9928d72dfb8d18a9,692d8c586749d81c3a9032e9,NA,NA,3,6,15960,yellow,disjunctive,1764674809157,12,critical
2057,32,NA,,lose,NA,NA,NA,Graduated College,920882,1764674870625,1764673949743,NA,female,English,blue,5cfebb94eafc4d001a62cbc9,692ec99dfe00f9b806a0cd4c,692d8c586749d81c3a9032e9,lose,NA,NA,NA,3240,green,conjunctive,NA,1,comprehension-1
2057,32,NA,,lose,NA,NA,NA,Graduated College,920882,1764674870625,1764673949743,NA,female,English,blue,5cfebb94eafc4d001a62cbc9,692ec99dfe00f9b806a0cd4c,692d8c586749d81c3a9032e9,lose,NA,NA,NA,1104,yellow,conjunctive,NA,2,comprehension-1
2057,32,NA,,win,NA,NA,NA,Graduated College,920882,1764674870625,1764673949743,NA,female,English,red,5cfebb94eafc4d001a62cbc9,692ec99dfe00f9b806a0cd4c,692d8c586749d81c3a9032e9,win,NA,NA,NA,801,yellow,conjunctive,NA,3,comprehension-1
2057,32,NA,,lose,NA,NA,NA,Graduated College,920882,1764674870625,1764673949743,NA,female,English,red,5cfebb94eafc4d001a62cbc9,692ec99dfe00f9b806a0cd4c,692d8c586749d81c3a9032e9,lose,NA,NA,NA,632,green,conjunctive,NA,4,comprehension-1
2057,32,1764674125303,,NA,Both balls were released at the same time,simult,none,Graduated College,920882,1764674870625,1764673949743,win,female,English,red,5cfebb94eafc4d001a62cbc9,692ec99dfe00f9b806a0cd4c,692d8c586749d81c3a9032e9,NA,Both balls were released at the same time,NA,NA,6217,yellow,conjunctive,1764674130207,1,training-attention
2057,32,1764674125303,,NA,Both balls were released at the same time,simult,none,Graduated College,920882,1764674870625,1764673949743,win,female,English,red,5cfebb94eafc4d001a62cbc9,692ec99dfe00f9b806a0cd4c,692d8c586749d81c3a9032e9,NA,Both balls were released at the same time,5,5,12889,yellow,conjunctive,1764674136880,1,training
2057,32,1764674138280,,NA,The yellow ball,short,left,Graduated College,920882,1764674870625,1764673949743,lose,female,English,blue,5cfebb94eafc4d001a62cbc9,692ec99dfe00f9b806a0cd4c,692d8c586749d81c3a9032e9,NA,The yellow ball,NA,NA,7961,yellow,conjunctive,1764674144841,2,training-attention
2057,32,1764674138280,,NA,The yellow ball,short,left,Graduated College,920882,1764674870625,1764673949743,lose,female,English,blue,5cfebb94eafc4d001a62cbc9,692ec99dfe00f9b806a0cd4c,692d8c586749d81c3a9032e9,NA,The yellow ball,7,1,13098,yellow,conjunctive,1764674149978,2,training
2057,32,1764674155074,,NA,NA,short,left,Graduated College,920882,1764674870625,1764673949743,lose,female,English,red,5cfebb94eafc4d001a62cbc9,692ec99dfe00f9b806a0cd4c,692d8c586749d81c3a9032e9,NA,NA,1,7,11865,green,conjunctive,1764674163091,1,critical
2057,32,1764674165508,,NA,NA,short,left,Graduated College,920882,1764674870625,1764673949743,lose,female,English,blue,5cfebb94eafc4d001a62cbc9,692ec99dfe00f9b806a0cd4c,692d8c586749d81c3a9032e9,NA,NA,5,5,9966,green,conjunctive,1764674173057,2,critical
2057,32,1764674174941,,NA,The yellow ball,short,left,Graduated College,920882,1764674870625,1764673949743,win,female,English,red,5cfebb94eafc4d001a62cbc9,692ec99dfe00f9b806a0cd4c,692d8c586749d81c3a9032e9,NA,The yellow ball,NA,NA,8604,yellow,conjunctive,1764674181661,3,critical-attention
2057,32,1764674174941,,NA,The yellow ball,short,left,Graduated College,920882,1764674870625,1764673949743,win,female,English,red,5cfebb94eafc4d001a62cbc9,692ec99dfe00f9b806a0cd4c,692d8c586749d81c3a9032e9,NA,The yellow ball,5,5,65605,yellow,conjunctive,1764674238662,3,critical
2057,32,1764674240173,,NA,NA,long,right,Graduated College,920882,1764674870625,1764673949743,lose,female,English,blue,5cfebb94eafc4d001a62cbc9,692ec99dfe00f9b806a0cd4c,692d8c586749d81c3a9032e9,NA,NA,7,1,13201,yellow,conjunctive,1764674251863,4,critical
2057,32,1764674253224,,NA,NA,long,right,Graduated College,920882,1764674870625,1764673949743,lose,female,English,red,5cfebb94eafc4d001a62cbc9,692ec99dfe00f9b806a0cd4c,692d8c586749d81c3a9032e9,NA,NA,1,7,37221,green,conjunctive,1764674289084,5,critical
2057,32,1764674290284,,NA,Both balls were released at the same time,simult,none,Graduated College,920882,1764674870625,1764673949743,lose,female,English,blue,5cfebb94eafc4d001a62cbc9,692ec99dfe00f9b806a0cd4c,692d8c586749d81c3a9032e9,NA,Both balls were released at the same time,NA,NA,9481,yellow,conjunctive,1764674298565,6,critical-attention
2057,32,1764674290284,,NA,Both balls were released at the same time,simult,none,Graduated College,920882,1764674870625,1764673949743,lose,female,English,blue,5cfebb94eafc4d001a62cbc9,692ec99dfe00f9b806a0cd4c,692d8c586749d81c3a9032e9,NA,Both balls were released at the same time,7,1,13250,yellow,conjunctive,1764674302334,6,critical
2057,32,1764674803070,,NA,NA,simult,none,Graduated College,920882,1764674870625,1764673949743,lose,female,English,red,5cfebb94eafc4d001a62cbc9,692ec99dfe00f9b806a0cd4c,692d8c586749d81c3a9032e9,NA,NA,1,7,507201,green,conjunctive,1764674809535,7,critical
2057,32,1764674811423,,NA,NA,short,left,Graduated College,920882,1764674870625,1764673949743,lose,female,English,blue,5cfebb94eafc4d001a62cbc9,692ec99dfe00f9b806a0cd4c,692d8c586749d81c3a9032e9,NA,NA,7,1,9545,yellow,conjunctive,1764674819080,8,critical
2057,32,1764674820496,,NA,Both balls were released at the same time,simult,none,Graduated College,920882,1764674870625,1764673949743,lose,female,English,blue,5cfebb94eafc4d001a62cbc9,692ec99dfe00f9b806a0cd4c,692d8c586749d81c3a9032e9,NA,Both balls were released at the same time,NA,NA,5729,green,conjunctive,1764674824809,9,critical-attention
2057,32,1764674820496,,NA,Both balls were released at the same time,simult,none,Graduated College,920882,1764674870625,1764673949743,lose,female,English,blue,5cfebb94eafc4d001a62cbc9,692ec99dfe00f9b806a0cd4c,692d8c586749d81c3a9032e9,NA,Both balls were released at the same time,5,5,9730,green,conjunctive,1764674828810,9,critical
2057,32,1764674830121,,NA,NA,long,right,Graduated College,920882,1764674870625,1764673949743,win,female,English,red,5cfebb94eafc4d001a62cbc9,692ec99dfe00f9b806a0cd4c,692d8c586749d81c3a9032e9,NA,NA,7,7,13073,yellow,conjunctive,1764674841883,10,critical
2057,32,1764674843475,,NA,NA,simult,none,Graduated College,920882,1764674870625,1764673949743,win,female,English,red,5cfebb94eafc4d001a62cbc9,692ec99dfe00f9b806a0cd4c,692d8c586749d81c3a9032e9,NA,NA,7,7,6945,yellow,conjunctive,1764674848828,11,critical
2057,32,1764674850172,,NA,NA,long,left,Graduated College,920882,1764674870625,1764673949743,lose,female,English,blue,5cfebb94eafc4d001a62cbc9,692ec99dfe00f9b806a0cd4c,692d8c586749d81c3a9032e9,NA,NA,7,7,12922,green,conjunctive,1764674861750,12,critical
2058,34,NA,,lose,NA,NA,NA,Graduated High-school,310949,1764677997527,1764677686578,NA,female,english,blue,64f3036a5b5f2feae0b1f51b,692ed81960430fd5fe511eaa,692d8c586749d81c3a9032e9,win,NA,NA,NA,22152,green,disjunctive,NA,1,comprehension-1
2058,34,NA,,win,NA,NA,NA,Graduated High-school,310949,1764677997527,1764677686578,NA,female,english,red,64f3036a5b5f2feae0b1f51b,692ed81960430fd5fe511eaa,692d8c586749d81c3a9032e9,win,NA,NA,NA,3017,green,disjunctive,NA,2,comprehension-1
2058,34,NA,,win,NA,NA,NA,Graduated High-school,310949,1764677997527,1764677686578,NA,female,english,blue,64f3036a5b5f2feae0b1f51b,692ed81960430fd5fe511eaa,692d8c586749d81c3a9032e9,win,NA,NA,NA,1278,yellow,disjunctive,NA,3,comprehension-1
2058,34,NA,,win,NA,NA,NA,Graduated High-school,310949,1764677997527,1764677686578,NA,female,english,red,64f3036a5b5f2feae0b1f51b,692ed81960430fd5fe511eaa,692d8c586749d81c3a9032e9,win,NA,NA,NA,1328,yellow,disjunctive,NA,4,comprehension-1
2058,34,NA,,lose,NA,NA,NA,Graduated High-school,310949,1764677997527,1764677686578,NA,female,english,blue,64f3036a5b5f2feae0b1f51b,692ed81960430fd5fe511eaa,692d8c586749d81c3a9032e9,win,NA,NA,NA,2247,green,disjunctive,NA,1,comprehension-2
2058,34,NA,,win,NA,NA,NA,Graduated High-school,310949,1764677997527,1764677686578,NA,female,english,red,64f3036a5b5f2feae0b1f51b,692ed81960430fd5fe511eaa,692d8c586749d81c3a9032e9,win,NA,NA,NA,1232,green,disjunctive,NA,2,comprehension-2
2058,34,NA,,win,NA,NA,NA,Graduated High-school,310949,1764677997527,1764677686578,NA,female,english,blue,64f3036a5b5f2feae0b1f51b,692ed81960430fd5fe511eaa,692d8c586749d81c3a9032e9,win,NA,NA,NA,881,yellow,disjunctive,NA,3,comprehension-2
2058,34,NA,,win,NA,NA,NA,Graduated High-school,310949,1764677997527,1764677686578,NA,female,english,red,64f3036a5b5f2feae0b1f51b,692ed81960430fd5fe511eaa,692d8c586749d81c3a9032e9,win,NA,NA,NA,903,yellow,disjunctive,NA,4,comprehension-2
2058,34,1764677788131,,NA,Both balls were released at the same time,simult,none,Graduated High-school,310949,1764677997527,1764677686578,win,female,english,red,64f3036a5b5f2feae0b1f51b,692ed81960430fd5fe511eaa,692d8c586749d81c3a9032e9,NA,The red ball,NA,NA,9239,green,disjunctive,1764677794867,1,training-attention
2058,34,1764677788131,,NA,Both balls were released at the same time,simult,none,Graduated High-school,310949,1764677997527,1764677686578,win,female,english,red,64f3036a5b5f2feae0b1f51b,692ed81960430fd5fe511eaa,692d8c586749d81c3a9032e9,NA,The red ball,7,1,16911,green,disjunctive,1764677802539,1,training
2058,34,1764677804643,,NA,The blue ball,short,right,Graduated High-school,310949,1764677997527,1764677686578,lose,female,english,blue,64f3036a5b5f2feae0b1f51b,692ed81960430fd5fe511eaa,692d8c586749d81c3a9032e9,NA,The blue ball,NA,NA,9424,green,disjunctive,1764677811963,2,training-attention
2058,34,1764677804643,,NA,The blue ball,short,right,Graduated High-school,310949,1764677997527,1764677686578,lose,female,english,blue,64f3036a5b5f2feae0b1f51b,692ed81960430fd5fe511eaa,692d8c586749d81c3a9032e9,NA,The blue ball,7,7,14672,green,disjunctive,1764677817211,2,training
2058,34,1764677819731,,NA,NA,short,left,Graduated High-school,310949,1764677997527,1764677686578,win,female,english,red,64f3036a5b5f2feae0b1f51b,692ed81960430fd5fe511eaa,692d8c586749d81c3a9032e9,NA,NA,7,1,11624,green,disjunctive,1764677830371,1,critical
2058,34,1764677832610,,NA,NA,short,left,Graduated High-school,310949,1764677997527,1764677686578,win,female,english,red,64f3036a5b5f2feae0b1f51b,692ed81960430fd5fe511eaa,692d8c586749d81c3a9032e9,NA,NA,7,7,13944,yellow,disjunctive,1764677844315,2,critical
2058,34,1764677845308,,NA,The green ball,short,left,Graduated High-school,310949,1764677997527,1764677686578,lose,female,english,blue,64f3036a5b5f2feae0b1f51b,692ed81960430fd5fe511eaa,692d8c586749d81c3a9032e9,NA,The green ball,NA,NA,8297,green,disjunctive,1764677852612,3,critical-attention
2058,34,1764677845308,,NA,The green ball,short,left,Graduated High-school,310949,1764677997527,1764677686578,lose,female,english,blue,64f3036a5b5f2feae0b1f51b,692ed81960430fd5fe511eaa,692d8c586749d81c3a9032e9,NA,The green ball,7,7,12416,green,disjunctive,1764677856731,3,critical
2058,34,1764677857859,,NA,NA,short,left,Graduated High-school,310949,1764677997527,1764677686578,win,female,english,blue,64f3036a5b5f2feae0b1f51b,692ed81960430fd5fe511eaa,692d8c586749d81c3a9032e9,NA,NA,1,7,10960,yellow,disjunctive,1764677867692,4,critical
2058,34,1764677868859,,NA,NA,simult,none,Graduated High-school,310949,1764677997527,1764677686578,win,female,english,red,64f3036a5b5f2feae0b1f51b,692ed81960430fd5fe511eaa,692d8c586749d81c3a9032e9,NA,NA,7,1,8655,green,disjunctive,1764677876347,5,critical
2058,34,1764677877732,,NA,Both balls were released at the same time,simult,none,Graduated High-school,310949,1764677997527,1764677686578,win,female,english,red,64f3036a5b5f2feae0b1f51b,692ed81960430fd5fe511eaa,692d8c586749d81c3a9032e9,NA,The yellow ball,NA,NA,6520,yellow,disjunctive,1764677882867,6,critical-attention
2058,34,1764677877732,,NA,Both balls were released at the same time,simult,none,Graduated High-school,310949,1764677997527,1764677686578,win,female,english,red,64f3036a5b5f2feae0b1f51b,692ed81960430fd5fe511eaa,692d8c586749d81c3a9032e9,NA,The yellow ball,7,7,10040,yellow,disjunctive,1764677886387,6,critical
2058,34,1764677887307,,NA,NA,long,left,Graduated High-school,310949,1764677997527,1764677686578,win,female,english,blue,64f3036a5b5f2feae0b1f51b,692ed81960430fd5fe511eaa,692d8c586749d81c3a9032e9,NA,NA,1,7,15121,yellow,disjunctive,1764677901508,7,critical
2058,34,1764677903771,,NA,NA,long,right,Graduated High-school,310949,1764677997527,1764677686578,lose,female,english,blue,64f3036a5b5f2feae0b1f51b,692ed81960430fd5fe511eaa,692d8c586749d81c3a9032e9,NA,NA,7,7,15447,green,disjunctive,1764677916955,8,critical
2058,34,1764677917995,,NA,Both balls were released at the same time,simult,none,Graduated High-school,310949,1764677997527,1764677686578,win,female,english,blue,64f3036a5b5f2feae0b1f51b,692ed81960430fd5fe511eaa,692d8c586749d81c3a9032e9,NA,Both balls were released at the same time,NA,NA,6640,yellow,disjunctive,1764677923595,9,critical-attention
2058,34,1764677917995,,NA,Both balls were released at the same time,simult,none,Graduated High-school,310949,1764677997527,1764677686578,win,female,english,blue,64f3036a5b5f2feae0b1f51b,692ed81960430fd5fe511eaa,692d8c586749d81c3a9032e9,NA,Both balls were released at the same time,1,7,11504,yellow,disjunctive,1764677928459,9,critical
2058,34,1764677930379,,NA,NA,simult,none,Graduated High-school,310949,1764677997527,1764677686578,lose,female,english,blue,64f3036a5b5f2feae0b1f51b,692ed81960430fd5fe511eaa,692d8c586749d81c3a9032e9,NA,NA,7,7,8936,green,disjunctive,1764677937395,10,critical
2058,34,1764677938579,,NA,NA,long,left,Graduated High-school,310949,1764677997527,1764677686578,win,female,english,red,64f3036a5b5f2feae0b1f51b,692ed81960430fd5fe511eaa,692d8c586749d81c3a9032e9,NA,NA,7,1,15896,green,disjunctive,1764677953291,11,critical
2058,34,1764677954826,,NA,NA,long,left,Graduated High-school,310949,1764677997527,1764677686578,win,female,english,red,64f3036a5b5f2feae0b1f51b,692ed81960430fd5fe511eaa,692d8c586749d81c3a9032e9,NA,NA,7,7,13920,yellow,disjunctive,1764677967211,12,critical
2059,42,NA,none,win,NA,NA,NA,Graduated High-school,319217,1764677997215,1764677677998,NA,female,English,red,58a43e029a17120001d910d5,692ed826d556d5233a371014,692d8c586749d81c3a9032e9,win,NA,NA,NA,5494,green,disjunctive,NA,1,comprehension-1
2059,42,NA,none,win,NA,NA,NA,Graduated High-school,319217,1764677997215,1764677677998,NA,female,English,blue,58a43e029a17120001d910d5,692ed826d556d5233a371014,692d8c586749d81c3a9032e9,win,NA,NA,NA,1464,yellow,disjunctive,NA,2,comprehension-1
2059,42,NA,none,lose,NA,NA,NA,Graduated High-school,319217,1764677997215,1764677677998,NA,female,English,blue,58a43e029a17120001d910d5,692ed826d556d5233a371014,692d8c586749d81c3a9032e9,lose,NA,NA,NA,1432,green,disjunctive,NA,3,comprehension-1
2059,42,NA,none,win,NA,NA,NA,Graduated High-school,319217,1764677997215,1764677677998,NA,female,English,red,58a43e029a17120001d910d5,692ed826d556d5233a371014,692d8c586749d81c3a9032e9,win,NA,NA,NA,1334,yellow,disjunctive,NA,4,comprehension-1
2059,42,1764677753290,none,NA,Both balls were released at the same time,simult,none,Graduated High-school,319217,1764677997215,1764677677998,win,female,English,red,58a43e029a17120001d910d5,692ed826d556d5233a371014,692d8c586749d81c3a9032e9,NA,The red ball,NA,NA,9715,green,disjunctive,1764677760535,1,training-attention
2059,42,1764677753290,none,NA,Both balls were released at the same time,simult,none,Graduated High-school,319217,1764677997215,1764677677998,win,female,English,red,58a43e029a17120001d910d5,692ed826d556d5233a371014,692d8c586749d81c3a9032e9,NA,The red ball,7,1,19487,green,disjunctive,1764677770307,1,training
2059,42,1764677772817,none,NA,The green ball,short,left,Graduated High-school,319217,1764677997215,1764677677998,lose,female,English,blue,58a43e029a17120001d910d5,692ed826d556d5233a371014,692d8c586749d81c3a9032e9,NA,The green ball,NA,NA,10259,green,disjunctive,1764677780566,2,training-attention
2059,42,1764677772817,none,NA,The green ball,short,left,Graduated High-school,319217,1764677997215,1764677677998,lose,female,English,blue,58a43e029a17120001d910d5,692ed826d556d5233a371014,692d8c586749d81c3a9032e9,NA,The green ball,5,5,20144,green,disjunctive,1764677790451,2,training
2059,42,1764677794664,none,NA,NA,simult,none,Graduated High-school,319217,1764677997215,1764677677998,win,female,English,blue,58a43e029a17120001d910d5,692ed826d556d5233a371014,692d8c586749d81c3a9032e9,NA,NA,1,6,12739,yellow,disjunctive,1764677805220,1,critical
2059,42,1764677807458,none,NA,NA,long,right,Graduated High-school,319217,1764677997215,1764677677998,lose,female,English,blue,58a43e029a17120001d910d5,692ed826d556d5233a371014,692d8c586749d81c3a9032e9,NA,NA,3,6,18048,green,disjunctive,1764677823268,2,critical
2059,42,1764677824740,none,NA,The blue ball,long,right,Graduated High-school,319217,1764677997215,1764677677998,win,female,English,blue,58a43e029a17120001d910d5,692ed826d556d5233a371014,692d8c586749d81c3a9032e9,NA,The blue ball,NA,NA,17768,yellow,disjunctive,1764677841036,3,critical-attention
2059,42,1764677824740,none,NA,The blue ball,long,right,Graduated High-school,319217,1764677997215,1764677677998,win,female,English,blue,58a43e029a17120001d910d5,692ed826d556d5233a371014,692d8c586749d81c3a9032e9,NA,The blue ball,1,6,23853,yellow,disjunctive,1764677847121,3,critical
2059,42,1764677848745,none,NA,NA,simult,none,Graduated High-school,319217,1764677997215,1764677677998,win,female,English,red,58a43e029a17120001d910d5,692ed826d556d5233a371014,692d8c586749d81c3a9032e9,NA,NA,7,1,9652,green,disjunctive,1764677856773,4,critical
2059,42,1764677858340,none,NA,NA,short,left,Graduated High-school,319217,1764677997215,1764677677998,lose,female,English,blue,58a43e029a17120001d910d5,692ed826d556d5233a371014,692d8c586749d81c3a9032e9,NA,NA,4,4,14562,green,disjunctive,1764677871335,5,critical
2059,42,1764677873006,none,NA,The yellow ball,short,left,Graduated High-school,319217,1764677997215,1764677677998,win,female,English,red,58a43e029a17120001d910d5,692ed826d556d5233a371014,692d8c586749d81c3a9032e9,NA,The yellow ball,NA,NA,9405,yellow,disjunctive,1764677880740,6,critical-attention
2059,42,1764677873006,none,NA,The yellow ball,short,left,Graduated High-school,319217,1764677997215,1764677677998,win,female,English,red,58a43e029a17120001d910d5,692ed826d556d5233a371014,692d8c586749d81c3a9032e9,NA,The yellow ball,2,5,19064,yellow,disjunctive,1764677890399,6,critical
2059,42,1764677892190,none,NA,NA,simult,none,Graduated High-school,319217,1764677997215,1764677677998,lose,female,English,blue,58a43e029a17120001d910d5,692ed826d556d5233a371014,692d8c586749d81c3a9032e9,NA,NA,5,5,10484,green,disjunctive,1764677900883,7,critical
2059,42,1764677902362,none,NA,NA,short,right,Graduated High-school,319217,1764677997215,1764677677998,win,female,English,red,58a43e029a17120001d910d5,692ed826d556d5233a371014,692d8c586749d81c3a9032e9,NA,NA,7,1,11466,green,disjunctive,1764677912349,8,critical
2059,42,1764677913965,none,NA,The red ball,long,right,Graduated High-school,319217,1764677997215,1764677677998,win,female,English,red,58a43e029a17120001d910d5,692ed826d556d5233a371014,692d8c586749d81c3a9032e9,NA,The red ball,NA,NA,13387,yellow,disjunctive,1764677925736,9,critical-attention
2059,42,1764677913965,none,NA,The red ball,long,right,Graduated High-school,319217,1764677997215,1764677677998,win,female,English,red,58a43e029a17120001d910d5,692ed826d556d5233a371014,692d8c586749d81c3a9032e9,NA,The red ball,6,2,20304,yellow,disjunctive,1764677932653,9,critical
2059,42,1764677934284,none,NA,NA,simult,none,Graduated High-school,319217,1764677997215,1764677677998,win,female,English,red,58a43e029a17120001d910d5,692ed826d556d5233a371014,692d8c586749d81c3a9032e9,NA,NA,4,4,8869,yellow,disjunctive,1764677941522,10,critical
2059,42,1764677943168,none,NA,NA,short,right,Graduated High-school,319217,1764677997215,1764677677998,win,female,English,blue,58a43e029a17120001d910d5,692ed826d556d5233a371014,692d8c586749d81c3a9032e9,NA,NA,1,7,13225,yellow,disjunctive,1764677954747,11,critical
2059,42,1764677956530,none,NA,NA,long,left,Graduated High-school,319217,1764677997215,1764677677998,win,female,English,red,58a43e029a17120001d910d5,692ed826d556d5233a371014,692d8c586749d81c3a9032e9,NA,NA,7,1,20407,green,disjunctive,1764677975154,12,critical
2061,36,NA,,lose,NA,NA,NA,Higher degree,238342,1764678023274,1764677784932,NA,female,English,blue,66ef36768bc403140fa01e35,692ed8926634add46f93c8c6,692d8c586749d81c3a9032e9,lose,NA,NA,NA,4131,yellow,conjunctive,NA,1,comprehension-1
2061,36,NA,,lose,NA,NA,NA,Higher degree,238342,1764678023274,1764677784932,NA,female,English,red,66ef36768bc403140fa01e35,692ed8926634add46f93c8c6,692d8c586749d81c3a9032e9,lose,NA,NA,NA,960,green,conjunctive,NA,2,comprehension-1
2061,36,NA,,win,NA,NA,NA,Higher degree,238342,1764678023274,1764677784932,NA,female,English,red,66ef36768bc403140fa01e35,692ed8926634add46f93c8c6,692d8c586749d81c3a9032e9,win,NA,NA,NA,928,yellow,conjunctive,NA,3,comprehension-1
2061,36,NA,,lose,NA,NA,NA,Higher degree,238342,1764678023274,1764677784932,NA,female,English,blue,66ef36768bc403140fa01e35,692ed8926634add46f93c8c6,692d8c586749d81c3a9032e9,lose,NA,NA,NA,664,green,conjunctive,NA,4,comprehension-1
2061,36,1764677829621,,NA,Both balls were released at the same time,simult,none,Higher degree,238342,1764678023274,1764677784932,win,female,English,red,66ef36768bc403140fa01e35,692ed8926634add46f93c8c6,692d8c586749d81c3a9032e9,NA,Both balls were released at the same time,NA,NA,8750,yellow,conjunctive,1764677836090,1,training-attention
2061,36,1764677829621,,NA,Both balls were released at the same time,simult,none,Higher degree,238342,1764678023274,1764677784932,win,female,English,red,66ef36768bc403140fa01e35,692ed8926634add46f93c8c6,692d8c586749d81c3a9032e9,NA,Both balls were released at the same time,4,4,15547,yellow,conjunctive,1764677842887,1,training
2061,36,1764677844631,,NA,The yellow ball,short,left,Higher degree,238342,1764678023274,1764677784932,lose,female,English,blue,66ef36768bc403140fa01e35,692ed8926634add46f93c8c6,692d8c586749d81c3a9032e9,NA,The yellow ball,NA,NA,9639,yellow,conjunctive,1764677852526,2,training-attention
2061,36,1764677844631,,NA,The yellow ball,short,left,Higher degree,238342,1764678023274,1764677784932,lose,female,English,blue,66ef36768bc403140fa01e35,692ed8926634add46f93c8c6,692d8c586749d81c3a9032e9,NA,The yellow ball,7,2,18053,yellow,conjunctive,1764677860940,2,training
2061,36,1764677864458,,NA,NA,long,left,Higher degree,238342,1764678023274,1764677784932,win,female,English,red,66ef36768bc403140fa01e35,692ed8926634add46f93c8c6,692d8c586749d81c3a9032e9,NA,NA,7,7,17697,yellow,conjunctive,1764677880131,1,critical
2061,36,1764677881658,,NA,NA,short,left,Higher degree,238342,1764678023274,1764677784932,win,female,English,red,66ef36768bc403140fa01e35,692ed8926634add46f93c8c6,692d8c586749d81c3a9032e9,NA,NA,7,7,10027,yellow,conjunctive,1764677890158,2,critical
2061,36,1764677891354,,NA,Both balls were released at the same time,simult,none,Higher degree,238342,1764678023274,1764677784932,lose,female,English,blue,66ef36768bc403140fa01e35,692ed8926634add46f93c8c6,692d8c586749d81c3a9032e9,NA,Both balls were released at the same time,NA,NA,6557,yellow,conjunctive,1764677896715,3,critical-attention
2061,36,1764677891354,,NA,Both balls were released at the same time,simult,none,Higher degree,238342,1764678023274,1764677784932,lose,female,English,blue,66ef36768bc403140fa01e35,692ed8926634add46f93c8c6,692d8c586749d81c3a9032e9,NA,Both balls were released at the same time,7,1,12220,yellow,conjunctive,1764677902378,3,critical
2061,36,1764677903426,,NA,NA,simult,none,Higher degree,238342,1764678023274,1764677784932,lose,female,English,red,66ef36768bc403140fa01e35,692ed8926634add46f93c8c6,692d8c586749d81c3a9032e9,NA,NA,1,7,9184,green,conjunctive,1764677911562,4,critical
2061,36,1764677913186,,NA,NA,short,left,Higher degree,238342,1764678023274,1764677784932,lose,female,English,blue,66ef36768bc403140fa01e35,692ed8926634add46f93c8c6,692d8c586749d81c3a9032e9,NA,NA,7,1,9146,yellow,conjunctive,1764677920708,5,critical
2061,36,1764677921674,,NA,The blue ball,long,right,Higher degree,238342,1764678023274,1764677784932,lose,female,English,blue,66ef36768bc403140fa01e35,692ed8926634add46f93c8c6,692d8c586749d81c3a9032e9,NA,The blue ball,NA,NA,11518,yellow,conjunctive,1764677932226,6,critical-attention
2061,36,1764677921674,,NA,The blue ball,long,right,Higher degree,238342,1764678023274,1764677784932,lose,female,English,blue,66ef36768bc403140fa01e35,692ed8926634add46f93c8c6,692d8c586749d81c3a9032e9,NA,The blue ball,7,1,16567,yellow,conjunctive,1764677937274,6,critical
2061,36,1764677938450,,NA,NA,short,left,Higher degree,238342,1764678023274,1764677784932,lose,female,English,red,66ef36768bc403140fa01e35,692ed8926634add46f93c8c6,692d8c586749d81c3a9032e9,NA,NA,1,7,9288,green,conjunctive,1764677946563,7,critical
2061,36,1764677948746,,NA,NA,long,right,Higher degree,238342,1764678023274,1764677784932,lose,female,English,blue,66ef36768bc403140fa01e35,692ed8926634add46f93c8c6,692d8c586749d81c3a9032e9,NA,NA,7,7,16752,green,conjunctive,1764677963315,8,critical
2061,36,1764677964819,,NA,The red ball,long,right,Higher degree,238342,1764678023274,1764677784932,lose,female,English,red,66ef36768bc403140fa01e35,692ed8926634add46f93c8c6,692d8c586749d81c3a9032e9,NA,The red ball,NA,NA,11871,green,conjunctive,1764677975186,9,critical-attention
2061,36,1764677964819,,NA,The red ball,long,right,Higher degree,238342,1764678023274,1764677784932,lose,female,English,red,66ef36768bc403140fa01e35,692ed8926634add46f93c8c6,692d8c586749d81c3a9032e9,NA,The red ball,1,7,17002,green,conjunctive,1764677980317,9,critical
2061,36,1764677982034,,NA,NA,simult,none,Higher degree,238342,1764678023274,1764677784932,lose,female,English,blue,66ef36768bc403140fa01e35,692ed8926634add46f93c8c6,692d8c586749d81c3a9032e9,NA,NA,7,7,13124,green,conjunctive,1764677993442,10,critical
2061,36,1764677994339,,NA,NA,simult,none,Higher degree,238342,1764678023274,1764677784932,win,female,English,red,66ef36768bc403140fa01e35,692ed8926634add46f93c8c6,692d8c586749d81c3a9032e9,NA,NA,7,7,7559,yellow,conjunctive,1764678001001,11,critical
2061,36,1764678001992,,NA,NA,short,right,Higher degree,238342,1764678023274,1764677784932,lose,female,English,blue,66ef36768bc403140fa01e35,692ed8926634add46f93c8c6,692d8c586749d81c3a9032e9,NA,NA,7,7,8257,green,conjunctive,1764678009258,12,critical
2060,75,NA,,lose,NA,NA,NA,Graduated High-school,320456,1764678007781,1764677687325,NA,female,English,red,5c5cad3e4ee81200018eafe2,692ed82248f2df5f20f0b2b9,692d8c586749d81c3a9032e9,lose,NA,NA,NA,6663,green,conjunctive,NA,1,comprehension-1
2060,75,NA,,win,NA,NA,NA,Graduated High-school,320456,1764678007781,1764677687325,NA,female,English,red,5c5cad3e4ee81200018eafe2,692ed82248f2df5f20f0b2b9,692d8c586749d81c3a9032e9,win,NA,NA,NA,2430,yellow,conjunctive,NA,2,comprehension-1
2060,75,NA,,lose,NA,NA,NA,Graduated High-school,320456,1764678007781,1764677687325,NA,female,English,blue,5c5cad3e4ee81200018eafe2,692ed82248f2df5f20f0b2b9,692d8c586749d81c3a9032e9,lose,NA,NA,NA,1297,green,conjunctive,NA,3,comprehension-1
2060,75,NA,,lose,NA,NA,NA,Graduated High-school,320456,1764678007781,1764677687325,NA,female,English,blue,5c5cad3e4ee81200018eafe2,692ed82248f2df5f20f0b2b9,692d8c586749d81c3a9032e9,lose,NA,NA,NA,1439,yellow,conjunctive,NA,4,comprehension-1
2060,75,1764677766072,,NA,Both balls were released at the same time,simult,none,Graduated High-school,320456,1764678007781,1764677687325,win,female,English,red,5c5cad3e4ee81200018eafe2,692ed82248f2df5f20f0b2b9,692d8c586749d81c3a9032e9,NA,Both balls were released at the same time,NA,NA,11604,yellow,conjunctive,1764677775151,1,training-attention
2060,75,1764677766072,,NA,Both balls were released at the same time,simult,none,Graduated High-school,320456,1764678007781,1764677687325,win,female,English,red,5c5cad3e4ee81200018eafe2,692ed82248f2df5f20f0b2b9,692d8c586749d81c3a9032e9,NA,Both balls were released at the same time,1,7,19928,yellow,conjunctive,1764677783475,1,training
2060,75,1764677787140,,NA,The yellow ball,short,left,Graduated High-school,320456,1764678007781,1764677687325,lose,female,English,blue,5c5cad3e4ee81200018eafe2,692ed82248f2df5f20f0b2b9,692d8c586749d81c3a9032e9,NA,The yellow ball,NA,NA,12284,yellow,conjunctive,1764677795759,2,training-attention
2060,75,1764677787140,,NA,The yellow ball,short,left,Graduated High-school,320456,1764678007781,1764677687325,lose,female,English,blue,5c5cad3e4ee81200018eafe2,692ed82248f2df5f20f0b2b9,692d8c586749d81c3a9032e9,NA,The yellow ball,7,1,21827,yellow,conjunctive,1764677805302,2,training
2060,75,1764677810523,,NA,NA,simult,none,Graduated High-school,320456,1764678007781,1764677687325,lose,female,English,blue,5c5cad3e4ee81200018eafe2,692ed82248f2df5f20f0b2b9,692d8c586749d81c3a9032e9,NA,NA,7,1,17090,yellow,conjunctive,1764677824728,1,critical
2060,75,1764677827212,,NA,NA,simult,none,Graduated High-school,320456,1764678007781,1764677687325,lose,female,English,red,5c5cad3e4ee81200018eafe2,692ed82248f2df5f20f0b2b9,692d8c586749d81c3a9032e9,NA,NA,1,7,9683,green,conjunctive,1764677834411,2,critical
2060,75,1764677837276,,NA,Both balls were released at the same time,simult,none,Graduated High-school,320456,1764678007781,1764677687325,lose,female,English,blue,5c5cad3e4ee81200018eafe2,692ed82248f2df5f20f0b2b9,692d8c586749d81c3a9032e9,NA,Both balls were released at the same time,NA,NA,8011,green,conjunctive,1764677842422,3,critical-attention
2060,75,1764677837276,,NA,Both balls were released at the same time,simult,none,Graduated High-school,320456,1764678007781,1764677687325,lose,female,English,blue,5c5cad3e4ee81200018eafe2,692ed82248f2df5f20f0b2b9,692d8c586749d81c3a9032e9,NA,Both balls were released at the same time,7,7,17819,green,conjunctive,1764677852230,3,critical
2060,75,1764677855115,,NA,NA,short,left,Graduated High-school,320456,1764678007781,1764677687325,lose,female,English,red,5c5cad3e4ee81200018eafe2,692ed82248f2df5f20f0b2b9,692d8c586749d81c3a9032e9,NA,NA,1,7,13774,green,conjunctive,1764677866004,4,critical
2060,75,1764677868202,,NA,NA,simult,none,Graduated High-school,320456,1764678007781,1764677687325,win,female,English,red,5c5cad3e4ee81200018eafe2,692ed82248f2df5f20f0b2b9,692d8c586749d81c3a9032e9,NA,NA,7,7,10677,yellow,conjunctive,1764677876681,5,critical
2060,75,1764677880056,,NA,The red ball,long,right,Graduated High-school,320456,1764678007781,1764677687325,lose,female,English,red,5c5cad3e4ee81200018eafe2,692ed82248f2df5f20f0b2b9,692d8c586749d81c3a9032e9,NA,The red ball,NA,NA,14700,green,conjunctive,1764677891381,6,critical-attention
2060,75,1764677880056,,NA,The red ball,long,right,Graduated High-school,320456,1764678007781,1764677687325,lose,female,English,red,5c5cad3e4ee81200018eafe2,692ed82248f2df5f20f0b2b9,692d8c586749d81c3a9032e9,NA,The red ball,1,7,19901,green,conjunctive,1764677896582,6,critical
2060,75,1764677899291,,NA,NA,long,left,Graduated High-school,320456,1764678007781,1764677687325,win,female,English,red,5c5cad3e4ee81200018eafe2,692ed82248f2df5f20f0b2b9,692d8c586749d81c3a9032e9,NA,NA,7,6,19021,yellow,conjunctive,1764677915603,7,critical
2060,75,1764677917999,,NA,NA,short,right,Graduated High-school,320456,1764678007781,1764677687325,lose,female,English,blue,5c5cad3e4ee81200018eafe2,692ed82248f2df5f20f0b2b9,692d8c586749d81c3a9032e9,NA,NA,7,1,13706,yellow,conjunctive,1764677929309,8,critical
2060,75,1764677930996,,NA,The blue ball,short,right,Graduated High-school,320456,1764678007781,1764677687325,lose,female,English,blue,5c5cad3e4ee81200018eafe2,692ed82248f2df5f20f0b2b9,692d8c586749d81c3a9032e9,NA,The blue ball,NA,NA,8884,green,conjunctive,1764677938193,9,critical-attention
2060,75,1764677930996,,NA,The blue ball,short,right,Graduated High-school,320456,1764678007781,1764677687325,lose,female,English,blue,5c5cad3e4ee81200018eafe2,692ed82248f2df5f20f0b2b9,692d8c586749d81c3a9032e9,NA,The blue ball,7,7,13636,green,conjunctive,1764677942945,9,critical
2060,75,1764677944792,,NA,NA,long,right,Graduated High-school,320456,1764678007781,1764677687325,lose,female,English,blue,5c5cad3e4ee81200018eafe2,692ed82248f2df5f20f0b2b9,692d8c586749d81c3a9032e9,NA,NA,7,7,18124,green,conjunctive,1764677961069,10,critical
2060,75,1764677963164,,NA,NA,short,right,Graduated High-school,320456,1764678007781,1764677687325,win,female,English,red,5c5cad3e4ee81200018eafe2,692ed82248f2df5f20f0b2b9,692d8c586749d81c3a9032e9,NA,NA,5,7,14439,yellow,conjunctive,1764677975508,11,critical
2060,75,1764677977984,,NA,NA,long,right,Graduated High-school,320456,1764678007781,1764677687325,lose,female,English,blue,5c5cad3e4ee81200018eafe2,692ed82248f2df5f20f0b2b9,692d8c586749d81c3a9032e9,NA,NA,7,1,16612,yellow,conjunctive,1764677992120,12,critical
2062,56,NA,,win,NA,NA,NA,Graduated College,479218,1764678277810,1764677798592,NA,female,english,blue,672d0d8193ca95b72d278b17,692ed899c6f4f5dcf7f0597d,692d8c586749d81c3a9032e9,win,NA,NA,NA,10018,yellow,disjunctive,NA,1,comprehension-1
2062,56,NA,,win,NA,NA,NA,Graduated College,479218,1764678277810,1764677798592,NA,female,english,red,672d0d8193ca95b72d278b17,692ed899c6f4f5dcf7f0597d,692d8c586749d81c3a9032e9,win,NA,NA,NA,5459,green,disjunctive,NA,2,comprehension-1
2062,56,NA,,win,NA,NA,NA,Graduated College,479218,1764678277810,1764677798592,NA,female,english,red,672d0d8193ca95b72d278b17,692ed899c6f4f5dcf7f0597d,692d8c586749d81c3a9032e9,win,NA,NA,NA,1728,yellow,disjunctive,NA,3,comprehension-1
2062,56,NA,,lose,NA,NA,NA,Graduated College,479218,1764678277810,1764677798592,NA,female,english,blue,672d0d8193ca95b72d278b17,692ed899c6f4f5dcf7f0597d,692d8c586749d81c3a9032e9,win,NA,NA,NA,1123,green,disjunctive,NA,4,comprehension-1
2062,56,NA,,win,NA,NA,NA,Graduated College,479218,1764678277810,1764677798592,NA,female,english,blue,672d0d8193ca95b72d278b17,692ed899c6f4f5dcf7f0597d,692d8c586749d81c3a9032e9,win,NA,NA,NA,2324,yellow,disjunctive,NA,1,comprehension-2
2062,56,NA,,win,NA,NA,NA,Graduated College,479218,1764678277810,1764677798592,NA,female,english,red,672d0d8193ca95b72d278b17,692ed899c6f4f5dcf7f0597d,692d8c586749d81c3a9032e9,win,NA,NA,NA,997,green,disjunctive,NA,2,comprehension-2
2062,56,NA,,win,NA,NA,NA,Graduated College,479218,1764678277810,1764677798592,NA,female,english,red,672d0d8193ca95b72d278b17,692ed899c6f4f5dcf7f0597d,692d8c586749d81c3a9032e9,win,NA,NA,NA,1006,yellow,disjunctive,NA,3,comprehension-2
2062,56,NA,,lose,NA,NA,NA,Graduated College,479218,1764678277810,1764677798592,NA,female,english,blue,672d0d8193ca95b72d278b17,692ed899c6f4f5dcf7f0597d,692d8c586749d81c3a9032e9,lose,NA,NA,NA,1379,green,disjunctive,NA,4,comprehension-2
2062,56,1764677944402,,NA,Both balls were released at the same time,simult,none,Graduated College,479218,1764678277810,1764677798592,win,female,english,red,672d0d8193ca95b72d278b17,692ed899c6f4f5dcf7f0597d,692d8c586749d81c3a9032e9,NA,The red ball,NA,NA,17741,green,disjunctive,1764677959142,1,training-attention
2062,56,1764677944402,,NA,Both balls were released at the same time,simult,none,Graduated College,479218,1764678277810,1764677798592,win,female,english,red,672d0d8193ca95b72d278b17,692ed899c6f4f5dcf7f0597d,692d8c586749d81c3a9032e9,NA,The red ball,7,1,29597,green,disjunctive,1764677970998,1,training
2062,56,1764677975787,,NA,The blue ball,short,right,Graduated College,479218,1764678277810,1764677798592,lose,female,english,blue,672d0d8193ca95b72d278b17,692ed899c6f4f5dcf7f0597d,692d8c586749d81c3a9032e9,NA,The blue ball,NA,NA,13594,green,disjunctive,1764677984592,2,training-attention
2062,56,1764677975787,,NA,The blue ball,short,right,Graduated College,479218,1764678277810,1764677798592,lose,female,english,blue,672d0d8193ca95b72d278b17,692ed899c6f4f5dcf7f0597d,692d8c586749d81c3a9032e9,NA,The blue ball,4,7,25389,green,disjunctive,1764677996387,2,training
2062,56,1764678000638,,NA,NA,long,right,Graduated College,479218,1764678277810,1764677798592,lose,female,english,blue,672d0d8193ca95b72d278b17,692ed899c6f4f5dcf7f0597d,692d8c586749d81c3a9032e9,NA,NA,2,6,20384,green,disjunctive,1764678018861,1,critical
2062,56,1764678021011,,NA,NA,simult,none,Graduated College,479218,1764678277810,1764677798592,win,female,english,red,672d0d8193ca95b72d278b17,692ed899c6f4f5dcf7f0597d,692d8c586749d81c3a9032e9,NA,NA,6,2,13544,green,disjunctive,1764678032406,2,critical
2062,56,1764678034772,,NA,The red ball,long,right,Graduated College,479218,1764678277810,1764677798592,win,female,english,red,672d0d8193ca95b72d278b17,692ed899c6f4f5dcf7f0597d,692d8c586749d81c3a9032e9,NA,The red ball,NA,NA,16919,yellow,disjunctive,1764678049325,3,critical-attention
2062,56,1764678034772,,NA,The red ball,long,right,Graduated College,479218,1764678277810,1764677798592,win,female,english,red,672d0d8193ca95b72d278b17,692ed899c6f4f5dcf7f0597d,692d8c586749d81c3a9032e9,NA,The red ball,2,6,25685,yellow,disjunctive,1764678058091,3,critical
2062,56,1764678060007,,NA,NA,simult,none,Graduated College,479218,1764678277810,1764677798592,win,female,english,blue,672d0d8193ca95b72d278b17,692ed899c6f4f5dcf7f0597d,692d8c586749d81c3a9032e9,NA,NA,2,6,13135,yellow,disjunctive,1764678071227,4,critical
2062,56,1764678073827,,NA,NA,short,left,Graduated College,479218,1764678277810,1764677798592,win,female,english,red,672d0d8193ca95b72d278b17,692ed899c6f4f5dcf7f0597d,692d8c586749d81c3a9032e9,NA,NA,6,2,15677,yellow,disjunctive,1764678086905,5,critical
2062,56,1764678088685,,NA,The yellow ball,long,left,Graduated College,479218,1764678277810,1764677798592,win,female,english,blue,672d0d8193ca95b72d278b17,692ed899c6f4f5dcf7f0597d,692d8c586749d81c3a9032e9,NA,The yellow ball,NA,NA,15795,yellow,disjunctive,1764678102701,6,critical-attention
2062,56,1764678088685,,NA,The yellow ball,long,left,Graduated College,479218,1764678277810,1764677798592,win,female,english,blue,672d0d8193ca95b72d278b17,692ed899c6f4f5dcf7f0597d,692d8c586749d81c3a9032e9,NA,The yellow ball,3,6,42339,yellow,disjunctive,1764678129245,6,critical
2062,56,1764678131111,,NA,NA,simult,none,Graduated College,479218,1764678277810,1764677798592,win,female,english,red,672d0d8193ca95b72d278b17,692ed899c6f4f5dcf7f0597d,692d8c586749d81c3a9032e9,NA,NA,6,6,12862,yellow,disjunctive,1764678142107,7,critical
2062,56,1764678146760,,NA,NA,short,left,Graduated College,479218,1764678277810,1764677798592,lose,female,english,blue,672d0d8193ca95b72d278b17,692ed899c6f4f5dcf7f0597d,692d8c586749d81c3a9032e9,NA,NA,6,6,15580,green,disjunctive,1764678157688,8,critical
2062,56,1764678160250,,NA,The green ball,long,left,Graduated College,479218,1764678277810,1764677798592,win,female,english,red,672d0d8193ca95b72d278b17,692ed899c6f4f5dcf7f0597d,692d8c586749d81c3a9032e9,NA,The green ball,NA,NA,15856,green,disjunctive,1764678173544,9,critical-attention
2062,56,1764678160250,,NA,The green ball,long,left,Graduated College,479218,1764678277810,1764677798592,win,female,english,red,672d0d8193ca95b72d278b17,692ed899c6f4f5dcf7f0597d,692d8c586749d81c3a9032e9,NA,The green ball,6,2,27282,green,disjunctive,1764678184970,9,critical
2062,56,1764678186407,,NA,NA,simult,none,Graduated College,479218,1764678277810,1764677798592,lose,female,english,blue,672d0d8193ca95b72d278b17,692ed899c6f4f5dcf7f0597d,692d8c586749d81c3a9032e9,NA,NA,6,6,12765,green,disjunctive,1764678197735,10,critical
2062,56,1764678200208,,NA,NA,short,left,Graduated College,479218,1764678277810,1764677798592,win,female,english,red,672d0d8193ca95b72d278b17,692ed899c6f4f5dcf7f0597d,692d8c586749d81c3a9032e9,NA,NA,6,2,15903,green,disjunctive,1764678213638,11,critical
2062,56,1764678215447,,NA,NA,short,left,Graduated College,479218,1764678277810,1764677798592,win,female,english,blue,672d0d8193ca95b72d278b17,692ed899c6f4f5dcf7f0597d,692d8c586749d81c3a9032e9,NA,NA,6,6,35658,yellow,disjunctive,1764678249296,12,critical
2063,52,NA,,lose,NA,NA,NA,Higher degree,835671,1764678537252,1764677701581,NA,male,english,blue,66cc6eb364154a51d4d44eb1,692ed8278066bae6d8d67b6f,692d8c586749d81c3a9032e9,lose,NA,NA,NA,5299,green,conjunctive,NA,1,comprehension-1
2063,52,NA,,win,NA,NA,NA,Higher degree,835671,1764678537252,1764677701581,NA,male,english,red,66cc6eb364154a51d4d44eb1,692ed8278066bae6d8d67b6f,692d8c586749d81c3a9032e9,win,NA,NA,NA,1725,yellow,conjunctive,NA,2,comprehension-1
2063,52,NA,,lose,NA,NA,NA,Higher degree,835671,1764678537252,1764677701581,NA,male,english,red,66cc6eb364154a51d4d44eb1,692ed8278066bae6d8d67b6f,692d8c586749d81c3a9032e9,lose,NA,NA,NA,1412,green,conjunctive,NA,3,comprehension-1
2063,52,NA,,lose,NA,NA,NA,Higher degree,835671,1764678537252,1764677701581,NA,male,english,blue,66cc6eb364154a51d4d44eb1,692ed8278066bae6d8d67b6f,692d8c586749d81c3a9032e9,lose,NA,NA,NA,2876,yellow,conjunctive,NA,4,comprehension-1
2063,52,1764677936630,,NA,Both balls were released at the same time,simult,none,Higher degree,835671,1764678537252,1764677701581,win,male,english,red,66cc6eb364154a51d4d44eb1,692ed8278066bae6d8d67b6f,692d8c586749d81c3a9032e9,NA,Both balls were released at the same time,NA,NA,12322,yellow,conjunctive,1764677945182,1,training-attention
2063,52,1764677936630,,NA,Both balls were released at the same time,simult,none,Higher degree,835671,1764678537252,1764677701581,win,male,english,red,66cc6eb364154a51d4d44eb1,692ed8278066bae6d8d67b6f,692d8c586749d81c3a9032e9,NA,Both balls were released at the same time,7,7,97643,yellow,conjunctive,1764678030503,1,training
2063,52,1764678039523,,NA,The yellow ball,short,left,Higher degree,835671,1764678537252,1764677701581,lose,male,english,blue,66cc6eb364154a51d4d44eb1,692ed8278066bae6d8d67b6f,692d8c586749d81c3a9032e9,NA,The yellow ball,NA,NA,17332,yellow,conjunctive,1764678047835,2,training-attention
2063,52,1764678039523,,NA,The yellow ball,short,left,Higher degree,835671,1764678537252,1764677701581,lose,male,english,blue,66cc6eb364154a51d4d44eb1,692ed8278066bae6d8d67b6f,692d8c586749d81c3a9032e9,NA,The yellow ball,7,1,31172,yellow,conjunctive,1764678061675,2,training
2063,52,1764678078401,,NA,NA,simult,none,Higher degree,835671,1764678537252,1764677701581,lose,male,english,blue,66cc6eb364154a51d4d44eb1,692ed8278066bae6d8d67b6f,692d8c586749d81c3a9032e9,NA,NA,7,3,111835,yellow,conjunctive,1764678187872,1,critical
2063,52,1764678189666,,NA,NA,long,right,Higher degree,835671,1764678537252,1764677701581,lose,male,english,blue,66cc6eb364154a51d4d44eb1,692ed8278066bae6d8d67b6f,692d8c586749d81c3a9032e9,NA,NA,7,7,14602,green,conjunctive,1764678202474,2,critical
2063,52,1764678253467,,NA,The green ball,short,left,Higher degree,835671,1764678537252,1764677701581,lose,male,english,blue,66cc6eb364154a51d4d44eb1,692ed8278066bae6d8d67b6f,692d8c586749d81c3a9032e9,NA,The green ball,NA,NA,60682,green,conjunctive,1764678263155,3,critical-attention
2063,52,1764678253467,,NA,The green ball,short,left,Higher degree,835671,1764678537252,1764677701581,lose,male,english,blue,66cc6eb364154a51d4d44eb1,692ed8278066bae6d8d67b6f,692d8c586749d81c3a9032e9,NA,The green ball,7,7,72455,green,conjunctive,1764678274929,3,critical
2063,52,1764678276909,,NA,NA,long,right,Higher degree,835671,1764678537252,1764677701581,lose,male,english,red,66cc6eb364154a51d4d44eb1,692ed8278066bae6d8d67b6f,692d8c586749d81c3a9032e9,NA,NA,1,7,18213,green,conjunctive,1764678293143,4,critical
2063,52,1764678299369,,NA,NA,simult,none,Higher degree,835671,1764678537252,1764677701581,lose,male,english,blue,66cc6eb364154a51d4d44eb1,692ed8278066bae6d8d67b6f,692d8c586749d81c3a9032e9,NA,NA,7,7,15648,green,conjunctive,1764678308791,5,critical
2063,52,1764678315891,,NA,The red ball,long,right,Higher degree,835671,1764678537252,1764677701581,win,male,english,red,66cc6eb364154a51d4d44eb1,692ed8278066bae6d8d67b6f,692d8c586749d81c3a9032e9,NA,The red ball,NA,NA,20548,yellow,conjunctive,1764678329339,6,critical-attention
2063,52,1764678315891,,NA,The red ball,long,right,Higher degree,835671,1764678537252,1764677701581,win,male,english,red,66cc6eb364154a51d4d44eb1,692ed8278066bae6d8d67b6f,692d8c586749d81c3a9032e9,NA,The red ball,7,7,26260,yellow,conjunctive,1764678335051,6,critical
2063,52,1764678336767,,NA,NA,simult,none,Higher degree,835671,1764678537252,1764677701581,win,male,english,red,66cc6eb364154a51d4d44eb1,692ed8278066bae6d8d67b6f,692d8c586749d81c3a9032e9,NA,NA,7,7,12258,yellow,conjunctive,1764678347309,7,critical
2063,52,1764678350873,,NA,NA,long,left,Higher degree,835671,1764678537252,1764677701581,lose,male,english,blue,66cc6eb364154a51d4d44eb1,692ed8278066bae6d8d67b6f,692d8c586749d81c3a9032e9,NA,NA,7,1,61192,yellow,conjunctive,1764678408502,8,critical
2063,52,1764678423084,,NA,The red ball,short,right,Higher degree,835671,1764678537252,1764677701581,lose,male,english,red,66cc6eb364154a51d4d44eb1,692ed8278066bae6d8d67b6f,692d8c586749d81c3a9032e9,NA,The red ball,NA,NA,26679,green,conjunctive,1764678435182,9,critical-attention
2063,52,1764678423084,,NA,The red ball,short,right,Higher degree,835671,1764678537252,1764677701581,lose,male,english,red,66cc6eb364154a51d4d44eb1,692ed8278066bae6d8d67b6f,692d8c586749d81c3a9032e9,NA,The red ball,7,1,51505,green,conjunctive,1764678460008,9,critical
2063,52,1764678465854,,NA,NA,short,left,Higher degree,835671,1764678537252,1764677701581,lose,male,english,blue,66cc6eb364154a51d4d44eb1,692ed8278066bae6d8d67b6f,692d8c586749d81c3a9032e9,NA,NA,7,7,32132,yellow,conjunctive,1764678492140,10,critical
2063,52,1764678498770,,NA,NA,short,right,Higher degree,835671,1764678537252,1764677701581,win,male,english,red,66cc6eb364154a51d4d44eb1,692ed8278066bae6d8d67b6f,692d8c586749d81c3a9032e9,NA,NA,7,7,17378,yellow,conjunctive,1764678509518,11,critical
2063,52,1764678512084,,NA,NA,simult,none,Higher degree,835671,1764678537252,1764677701581,lose,male,english,red,66cc6eb364154a51d4d44eb1,692ed8278066bae6d8d67b6f,692d8c586749d81c3a9032e9,NA,NA,1,7,10686,green,conjunctive,1764678520204,12,critical
2064,60,NA,No comments.,lose,NA,NA,NA,Graduated High-school,554987,1764678627855,1764678072868,NA,male,English,blue,5e1be631fe04c0402ce45da0,692ed99e91c61177c8227ace,692d8c586749d81c3a9032e9,lose,NA,NA,NA,14472,green,disjunctive,NA,1,comprehension-1
2064,60,NA,No comments.,win,NA,NA,NA,Graduated High-school,554987,1764678627855,1764678072868,NA,male,English,red,5e1be631fe04c0402ce45da0,692ed99e91c61177c8227ace,692d8c586749d81c3a9032e9,win,NA,NA,NA,6528,green,disjunctive,NA,2,comprehension-1
2064,60,NA,No comments.,win,NA,NA,NA,Graduated High-school,554987,1764678627855,1764678072868,NA,male,English,red,5e1be631fe04c0402ce45da0,692ed99e91c61177c8227ace,692d8c586749d81c3a9032e9,win,NA,NA,NA,2064,yellow,disjunctive,NA,3,comprehension-1
2064,60,NA,No comments.,win,NA,NA,NA,Graduated High-school,554987,1764678627855,1764678072868,NA,male,English,blue,5e1be631fe04c0402ce45da0,692ed99e91c61177c8227ace,692d8c586749d81c3a9032e9,win,NA,NA,NA,2232,yellow,disjunctive,NA,4,comprehension-1
2064,60,1764678207060,No comments.,NA,Both balls were released at the same time,simult,none,Graduated High-school,554987,1764678627855,1764678072868,win,male,English,red,5e1be631fe04c0402ce45da0,692ed99e91c61177c8227ace,692d8c586749d81c3a9032e9,NA,The red ball,NA,NA,21256,green,disjunctive,1764678223877,1,training-attention
2064,60,1764678207060,No comments.,NA,Both balls were released at the same time,simult,none,Graduated High-school,554987,1764678627855,1764678072868,win,male,English,red,5e1be631fe04c0402ce45da0,692ed99e91c61177c8227ace,692d8c586749d81c3a9032e9,NA,The red ball,7,1,40344,green,disjunctive,1764678242965,1,training
2064,60,1764678247573,No comments.,NA,The blue ball,short,right,Graduated High-school,554987,1764678627855,1764678072868,lose,male,English,blue,5e1be631fe04c0402ce45da0,692ed99e91c61177c8227ace,692d8c586749d81c3a9032e9,NA,The blue ball,NA,NA,18352,green,disjunctive,1764678261317,2,training-attention
2064,60,1764678247573,No comments.,NA,The blue ball,short,right,Graduated High-school,554987,1764678627855,1764678072868,lose,male,English,blue,5e1be631fe04c0402ce45da0,692ed99e91c61177c8227ace,692d8c586749d81c3a9032e9,NA,The blue ball,6,6,38280,green,disjunctive,1764678281245,2,training
2064,60,1764678286060,No comments.,NA,NA,simult,none,Graduated High-school,554987,1764678627855,1764678072868,win,male,English,red,5e1be631fe04c0402ce45da0,692ed99e91c61177c8227ace,692d8c586749d81c3a9032e9,NA,NA,7,7,20440,yellow,disjunctive,1764678304517,1,critical
2064,60,1764678306124,No comments.,NA,NA,simult,none,Graduated High-school,554987,1764678627855,1764678072868,win,male,English,blue,5e1be631fe04c0402ce45da0,692ed99e91c61177c8227ace,692d8c586749d81c3a9032e9,NA,NA,1,7,13775,yellow,disjunctive,1764678318292,2,critical
2064,60,1764678320077,No comments.,NA,The green ball,short,left,Graduated High-school,554987,1764678627855,1764678072868,win,male,English,red,5e1be631fe04c0402ce45da0,692ed99e91c61177c8227ace,692d8c586749d81c3a9032e9,NA,The green ball,NA,NA,12385,green,disjunctive,1764678330677,3,critical-attention
2064,60,1764678320077,No comments.,NA,The green ball,short,left,Graduated High-school,554987,1764678627855,1764678072868,win,male,English,red,5e1be631fe04c0402ce45da0,692ed99e91c61177c8227ace,692d8c586749d81c3a9032e9,NA,The green ball,7,1,25440,green,disjunctive,1764678343732,3,critical
2064,60,1764678345381,No comments.,NA,NA,long,left,Graduated High-school,554987,1764678627855,1764678072868,lose,male,English,blue,5e1be631fe04c0402ce45da0,692ed99e91c61177c8227ace,692d8c586749d81c3a9032e9,NA,NA,6,7,43512,green,disjunctive,1764678387243,4,critical
2064,60,1764678388748,No comments.,NA,NA,short,right,Graduated High-school,554987,1764678627855,1764678072868,win,male,English,blue,5e1be631fe04c0402ce45da0,692ed99e91c61177c8227ace,692d8c586749d81c3a9032e9,NA,NA,1,7,26952,yellow,disjunctive,1764678414196,5,critical
2064,60,1764678415413,No comments.,NA,Both balls were released at the same time,simult,none,Graduated High-school,554987,1764678627855,1764678072868,lose,male,English,blue,5e1be631fe04c0402ce45da0,692ed99e91c61177c8227ace,692d8c586749d81c3a9032e9,NA,Both balls were released at the same time,NA,NA,13712,green,disjunctive,1764678427908,6,critical-attention
2064,60,1764678415413,No comments.,NA,Both balls were released at the same time,simult,none,Graduated High-school,554987,1764678627855,1764678072868,lose,male,English,blue,5e1be631fe04c0402ce45da0,692ed99e91c61177c8227ace,692d8c586749d81c3a9032e9,NA,Both balls were released at the same time,7,7,29112,green,disjunctive,1764678443308,6,critical
2064,60,1764678445276,No comments.,NA,NA,short,right,Graduated High-school,554987,1764678627855,1764678072868,lose,male,English,blue,5e1be631fe04c0402ce45da0,692ed99e91c61177c8227ace,692d8c586749d81c3a9032e9,NA,NA,6,7,21936,green,disjunctive,1764678465244,7,critical
2064,60,1764678466795,No comments.,NA,NA,short,left,Graduated High-school,554987,1764678627855,1764678072868,win,male,English,red,5e1be631fe04c0402ce45da0,692ed99e91c61177c8227ace,692d8c586749d81c3a9032e9,NA,NA,6,6,30256,yellow,disjunctive,1764678495500,8,critical
2064,60,1764678497564,No comments.,NA,Both balls were released at the same time,simult,none,Graduated High-school,554987,1764678627855,1764678072868,win,male,English,red,5e1be631fe04c0402ce45da0,692ed99e91c61177c8227ace,692d8c586749d81c3a9032e9,NA,Both balls were released at the same time,NA,NA,9408,green,disjunctive,1764678504908,9,critical-attention
2064,60,1764678497564,No comments.,NA,Both balls were released at the same time,simult,none,Graduated High-school,554987,1764678627855,1764678072868,win,male,English,red,5e1be631fe04c0402ce45da0,692ed99e91c61177c8227ace,692d8c586749d81c3a9032e9,NA,Both balls were released at the same time,7,1,21279,green,disjunctive,1764678516779,9,critical
2064,60,1764678519107,No comments.,NA,NA,long,left,Graduated High-school,554987,1764678627855,1764678072868,win,male,English,blue,5e1be631fe04c0402ce45da0,692ed99e91c61177c8227ace,692d8c586749d81c3a9032e9,NA,NA,1,7,23121,yellow,disjunctive,1764678539900,10,critical
2064,60,1764678541203,No comments.,NA,NA,long,right,Graduated High-school,554987,1764678627855,1764678072868,win,male,English,red,5e1be631fe04c0402ce45da0,692ed99e91c61177c8227ace,692d8c586749d81c3a9032e9,NA,NA,7,1,20432,green,disjunctive,1764678560332,11,critical
2064,60,1764678562411,No comments.,NA,NA,long,right,Graduated High-school,554987,1764678627855,1764678072868,win,male,English,red,5e1be631fe04c0402ce45da0,692ed99e91c61177c8227ace,692d8c586749d81c3a9032e9,NA,NA,6,6,33479,yellow,disjunctive,1764678593811,12,critical
2065,54,NA,,win,NA,NA,NA,Higher degree,860023,1764678652970,1764677792947,NA,female,English,red,5eeb2b8a36774c27657f227c,692ed894ec19ef3d506ef54c,692d8c586749d81c3a9032e9,win,NA,NA,NA,6904,green,disjunctive,NA,1,comprehension-1
2065,54,NA,,win,NA,NA,NA,Higher degree,860023,1764678652970,1764677792947,NA,female,English,blue,5eeb2b8a36774c27657f227c,692ed894ec19ef3d506ef54c,692d8c586749d81c3a9032e9,win,NA,NA,NA,1889,yellow,disjunctive,NA,2,comprehension-1
2065,54,NA,,lose,NA,NA,NA,Higher degree,860023,1764678652970,1764677792947,NA,female,English,blue,5eeb2b8a36774c27657f227c,692ed894ec19ef3d506ef54c,692d8c586749d81c3a9032e9,lose,NA,NA,NA,1015,green,disjunctive,NA,3,comprehension-1
2065,54,NA,,win,NA,NA,NA,Higher degree,860023,1764678652970,1764677792947,NA,female,English,red,5eeb2b8a36774c27657f227c,692ed894ec19ef3d506ef54c,692d8c586749d81c3a9032e9,win,NA,NA,NA,1215,yellow,disjunctive,NA,4,comprehension-1
2065,54,1764677868440,,NA,Both balls were released at the same time,simult,none,Higher degree,860023,1764678652970,1764677792947,win,female,English,red,5eeb2b8a36774c27657f227c,692ed894ec19ef3d506ef54c,692d8c586749d81c3a9032e9,NA,The red ball,NA,NA,12178,green,disjunctive,1764677877546,1,training-attention
2065,54,1764677868440,,NA,Both balls were released at the same time,simult,none,Higher degree,860023,1764678652970,1764677792947,win,female,English,red,5eeb2b8a36774c27657f227c,692ed894ec19ef3d506ef54c,692d8c586749d81c3a9032e9,NA,The red ball,7,1,22858,green,disjunctive,1764677888226,1,training
2065,54,1764677890472,,NA,The green ball,short,left,Higher degree,860023,1764678652970,1764677792947,lose,female,English,blue,5eeb2b8a36774c27657f227c,692ed894ec19ef3d506ef54c,692d8c586749d81c3a9032e9,NA,The green ball,NA,NA,10335,green,disjunctive,1764677898561,2,training-attention
2065,54,1764677890472,,NA,The green ball,short,left,Higher degree,860023,1764678652970,1764677792947,lose,female,English,blue,5eeb2b8a36774c27657f227c,692ed894ec19ef3d506ef54c,692d8c586749d81c3a9032e9,NA,The green ball,7,7,551529,green,disjunctive,1764678439754,2,training
2065,54,1764678452555,,NA,NA,long,right,Higher degree,860023,1764678652970,1764677792947,win,female,English,blue,5eeb2b8a36774c27657f227c,692ed894ec19ef3d506ef54c,692d8c586749d81c3a9032e9,NA,NA,1,7,26496,yellow,disjunctive,1764678468211,1,critical
2065,54,1764678471307,,NA,NA,long,left,Higher degree,860023,1764678652970,1764677792947,win,female,English,red,5eeb2b8a36774c27657f227c,692ed894ec19ef3d506ef54c,692d8c586749d81c3a9032e9,NA,NA,7,1,17370,green,disjunctive,1764678485581,2,critical
2065,54,1764678487011,,NA,Both balls were released at the same time,simult,none,Higher degree,860023,1764678652970,1764677792947,win,female,English,red,5eeb2b8a36774c27657f227c,692ed894ec19ef3d506ef54c,692d8c586749d81c3a9032e9,NA,The red ball,NA,NA,9358,yellow,disjunctive,1764678494939,3,critical-attention
2065,54,1764678487011,,NA,Both balls were released at the same time,simult,none,Higher degree,860023,1764678652970,1764677792947,win,female,English,red,5eeb2b8a36774c27657f227c,692ed894ec19ef3d506ef54c,692d8c586749d81c3a9032e9,NA,The red ball,7,1,16062,yellow,disjunctive,1764678501643,3,critical
2065,54,1764678503843,,NA,NA,simult,none,Higher degree,860023,1764678652970,1764677792947,win,female,English,blue,5eeb2b8a36774c27657f227c,692ed894ec19ef3d506ef54c,692d8c586749d81c3a9032e9,NA,NA,1,7,11344,yellow,disjunctive,1764678512987,4,critical
2065,54,1764678515491,,NA,NA,long,right,Higher degree,860023,1764678652970,1764677792947,lose,female,English,blue,5eeb2b8a36774c27657f227c,692ed894ec19ef3d506ef54c,692d8c586749d81c3a9032e9,NA,NA,7,7,22702,green,disjunctive,1764678535689,5,critical
2065,54,1764678538033,,NA,Both balls were released at the same time,simult,none,Higher degree,860023,1764678652970,1764677792947,lose,female,English,blue,5eeb2b8a36774c27657f227c,692ed894ec19ef3d506ef54c,692d8c586749d81c3a9032e9,NA,Both balls were released at the same time,NA,NA,13017,green,disjunctive,1764678548706,6,critical-attention
2065,54,1764678538033,,NA,Both balls were released at the same time,simult,none,Higher degree,860023,1764678652970,1764677792947,lose,female,English,blue,5eeb2b8a36774c27657f227c,692ed894ec19ef3d506ef54c,692d8c586749d81c3a9032e9,NA,Both balls were released at the same time,7,7,18520,green,disjunctive,1764678554209,6,critical
2065,54,1764678557609,,NA,NA,short,left,Higher degree,860023,1764678652970,1764677792947,win,female,English,blue,5eeb2b8a36774c27657f227c,692ed894ec19ef3d506ef54c,692d8c586749d81c3a9032e9,NA,NA,1,7,14224,yellow,disjunctive,1764678568433,7,critical
2065,54,1764678570049,,NA,NA,long,left,Higher degree,860023,1764678652970,1764677792947,win,female,English,red,5eeb2b8a36774c27657f227c,692ed894ec19ef3d506ef54c,692d8c586749d81c3a9032e9,NA,NA,1,7,17135,yellow,disjunctive,1764678585568,8,critical
2065,54,1764678587271,,NA,The red ball,short,right,Higher degree,860023,1764678652970,1764677792947,win,female,English,red,5eeb2b8a36774c27657f227c,692ed894ec19ef3d506ef54c,692d8c586749d81c3a9032e9,NA,The red ball,NA,NA,9792,green,disjunctive,1764678595360,9,critical-attention
2065,54,1764678587271,,NA,The red ball,short,right,Higher degree,860023,1764678652970,1764677792947,win,female,English,red,5eeb2b8a36774c27657f227c,692ed894ec19ef3d506ef54c,692d8c586749d81c3a9032e9,NA,The red ball,7,1,15687,green,disjunctive,1764678601255,9,critical
2065,54,1764678603087,,NA,NA,short,left,Higher degree,860023,1764678652970,1764677792947,lose,female,English,blue,5eeb2b8a36774c27657f227c,692ed894ec19ef3d506ef54c,692d8c586749d81c3a9032e9,NA,NA,7,7,14135,green,disjunctive,1764678615391,10,critical
2065,54,1764678617560,,NA,NA,short,left,Higher degree,860023,1764678652970,1764677792947,win,female,English,red,5eeb2b8a36774c27657f227c,692ed894ec19ef3d506ef54c,692d8c586749d81c3a9032e9,NA,NA,1,7,11872,yellow,disjunctive,1764678627263,11,critical
2065,54,1764678629471,,NA,NA,simult,none,Higher degree,860023,1764678652970,1764677792947,win,female,English,red,5eeb2b8a36774c27657f227c,692ed894ec19ef3d506ef54c,692d8c586749d81c3a9032e9,NA,NA,7,1,11024,green,disjunctive,1764678638287,12,critical
2066,30,NA,,lose,NA,NA,NA,Graduated High-school,287708,1764679089553,1764678801845,NA,female,English,blue,69256d84cc85ee6a4db820d0,692ed9cf4c33e2aae4c6ef5c,692d8c586749d81c3a9032e9,lose,NA,NA,NA,10965,green,conjunctive,NA,1,comprehension-1
2066,30,NA,,lose,NA,NA,NA,Graduated High-school,287708,1764679089553,1764678801845,NA,female,English,red,69256d84cc85ee6a4db820d0,692ed9cf4c33e2aae4c6ef5c,692d8c586749d81c3a9032e9,win,NA,NA,NA,4831,green,conjunctive,NA,2,comprehension-1
2066,30,NA,,win,NA,NA,NA,Graduated High-school,287708,1764679089553,1764678801845,NA,female,English,red,69256d84cc85ee6a4db820d0,692ed9cf4c33e2aae4c6ef5c,692d8c586749d81c3a9032e9,win,NA,NA,NA,1042,yellow,conjunctive,NA,3,comprehension-1
2066,30,NA,,lose,NA,NA,NA,Graduated High-school,287708,1764679089553,1764678801845,NA,female,English,blue,69256d84cc85ee6a4db820d0,692ed9cf4c33e2aae4c6ef5c,692d8c586749d81c3a9032e9,win,NA,NA,NA,2274,yellow,conjunctive,NA,4,comprehension-1
2066,30,NA,,lose,NA,NA,NA,Graduated High-school,287708,1764679089553,1764678801845,NA,female,English,blue,69256d84cc85ee6a4db820d0,692ed9cf4c33e2aae4c6ef5c,692d8c586749d81c3a9032e9,lose,NA,NA,NA,1340,green,conjunctive,NA,1,comprehension-2
2066,30,NA,,lose,NA,NA,NA,Graduated High-school,287708,1764679089553,1764678801845,NA,female,English,red,69256d84cc85ee6a4db820d0,692ed9cf4c33e2aae4c6ef5c,692d8c586749d81c3a9032e9,lose,NA,NA,NA,1084,green,conjunctive,NA,2,comprehension-2
2066,30,NA,,win,NA,NA,NA,Graduated High-school,287708,1764679089553,1764678801845,NA,female,English,red,69256d84cc85ee6a4db820d0,692ed9cf4c33e2aae4c6ef5c,692d8c586749d81c3a9032e9,win,NA,NA,NA,906,yellow,conjunctive,NA,3,comprehension-2
2066,30,NA,,lose,NA,NA,NA,Graduated High-school,287708,1764679089553,1764678801845,NA,female,English,blue,69256d84cc85ee6a4db820d0,692ed9cf4c33e2aae4c6ef5c,692d8c586749d81c3a9032e9,lose,NA,NA,NA,1719,yellow,conjunctive,NA,4,comprehension-2
2066,30,1764678867331,,NA,Both balls were released at the same time,simult,none,Graduated High-school,287708,1764679089553,1764678801845,win,female,English,red,69256d84cc85ee6a4db820d0,692ed9cf4c33e2aae4c6ef5c,692d8c586749d81c3a9032e9,NA,Both balls were released at the same time,NA,NA,6703,yellow,conjunctive,1764678872251,1,training-attention
2066,30,1764678867331,,NA,Both balls were released at the same time,simult,none,Graduated High-school,287708,1764679089553,1764678801845,win,female,English,red,69256d84cc85ee6a4db820d0,692ed9cf4c33e2aae4c6ef5c,692d8c586749d81c3a9032e9,NA,Both balls were released at the same time,4,4,11685,yellow,conjunctive,1764678877233,1,training
2066,30,1764678878674,,NA,The blue ball,short,right,Graduated High-school,287708,1764679089553,1764678801845,lose,female,English,blue,69256d84cc85ee6a4db820d0,692ed9cf4c33e2aae4c6ef5c,692d8c586749d81c3a9032e9,NA,The blue ball,NA,NA,13117,yellow,conjunctive,1764678890351,2,training-attention
2066,30,1764678878674,,NA,The blue ball,short,right,Graduated High-school,287708,1764679089553,1764678801845,lose,female,English,blue,69256d84cc85ee6a4db820d0,692ed9cf4c33e2aae4c6ef5c,692d8c586749d81c3a9032e9,NA,The blue ball,7,1,20785,yellow,conjunctive,1764678898019,2,training
2066,30,1764678901553,,NA,NA,short,right,Graduated High-school,287708,1764679089553,1764678801845,lose,female,English,red,69256d84cc85ee6a4db820d0,692ed9cf4c33e2aae4c6ef5c,692d8c586749d81c3a9032e9,NA,NA,1,7,11740,green,conjunctive,1764678911399,1,critical
2066,30,1764678913046,,NA,NA,simult,none,Graduated High-school,287708,1764679089553,1764678801845,lose,female,English,blue,69256d84cc85ee6a4db820d0,692ed9cf4c33e2aae4c6ef5c,692d8c586749d81c3a9032e9,NA,NA,7,1,9082,yellow,conjunctive,1764678920481,2,critical
2066,30,1764678921928,,NA,The yellow ball,short,left,Graduated High-school,287708,1764679089553,1764678801845,lose,female,English,blue,69256d84cc85ee6a4db820d0,692ed9cf4c33e2aae4c6ef5c,692d8c586749d81c3a9032e9,NA,The yellow ball,NA,NA,8829,yellow,conjunctive,1764678929310,3,critical-attention
2066,30,1764678921928,,NA,The yellow ball,short,left,Graduated High-school,287708,1764679089553,1764678801845,lose,female,English,blue,69256d84cc85ee6a4db820d0,692ed9cf4c33e2aae4c6ef5c,692d8c586749d81c3a9032e9,NA,The yellow ball,7,1,12888,yellow,conjunctive,1764678933369,3,critical
2066,30,1764678934892,,NA,NA,long,left,Graduated High-school,287708,1764679089553,1764678801845,lose,female,English,red,69256d84cc85ee6a4db820d0,692ed9cf4c33e2aae4c6ef5c,692d8c586749d81c3a9032e9,NA,NA,1,7,14672,green,conjunctive,1764678948041,4,critical
2066,30,1764678949300,,NA,NA,long,left,Graduated High-school,287708,1764679089553,1764678801845,win,female,English,red,69256d84cc85ee6a4db820d0,692ed9cf4c33e2aae4c6ef5c,692d8c586749d81c3a9032e9,NA,NA,7,1,19508,yellow,conjunctive,1764678967549,5,critical
2066,30,1764678968487,,NA,The blue ball,long,right,Graduated High-school,287708,1764679089553,1764678801845,lose,female,English,blue,69256d84cc85ee6a4db820d0,692ed9cf4c33e2aae4c6ef5c,692d8c586749d81c3a9032e9,NA,The blue ball,NA,NA,13021,yellow,conjunctive,1764678980570,6,critical-attention
2066,30,1764678968487,,NA,The blue ball,long,right,Graduated High-school,287708,1764679089553,1764678801845,lose,female,English,blue,69256d84cc85ee6a4db820d0,692ed9cf4c33e2aae4c6ef5c,692d8c586749d81c3a9032e9,NA,The blue ball,7,1,22362,yellow,conjunctive,1764678989911,6,critical
2066,30,1764678991150,,NA,NA,simult,none,Graduated High-school,287708,1764679089553,1764678801845,lose,female,English,blue,69256d84cc85ee6a4db820d0,692ed9cf4c33e2aae4c6ef5c,692d8c586749d81c3a9032e9,NA,NA,4,4,8903,green,conjunctive,1764678998814,7,critical
2066,30,1764679001848,,NA,NA,short,right,Graduated High-school,287708,1764679089553,1764678801845,lose,female,English,blue,69256d84cc85ee6a4db820d0,692ed9cf4c33e2aae4c6ef5c,692d8c586749d81c3a9032e9,NA,NA,7,1,12057,green,conjunctive,1764679010871,8,critical
2066,30,1764679011869,,NA,The red ball,short,right,Graduated High-school,287708,1764679089553,1764678801845,win,female,English,red,69256d84cc85ee6a4db820d0,692ed9cf4c33e2aae4c6ef5c,692d8c586749d81c3a9032e9,NA,The red ball,NA,NA,7782,yellow,conjunctive,1764679018653,9,critical-attention
2066,30,1764679011869,,NA,The red ball,short,right,Graduated High-school,287708,1764679089553,1764678801845,win,female,English,red,69256d84cc85ee6a4db820d0,692ed9cf4c33e2aae4c6ef5c,692d8c586749d81c3a9032e9,NA,The red ball,1,7,17328,yellow,conjunctive,1764679028199,9,critical
2066,30,1764679029440,,NA,NA,simult,none,Graduated High-school,287708,1764679089553,1764678801845,win,female,English,red,69256d84cc85ee6a4db820d0,692ed9cf4c33e2aae4c6ef5c,692d8c586749d81c3a9032e9,NA,NA,4,4,7191,yellow,conjunctive,1764679035390,10,critical
2066,30,1764679044027,,NA,NA,long,right,Graduated High-school,287708,1764679089553,1764678801845,lose,female,English,blue,69256d84cc85ee6a4db820d0,692ed9cf4c33e2aae4c6ef5c,692d8c586749d81c3a9032e9,NA,NA,7,1,26570,green,conjunctive,1764679061960,11,critical
2066,30,1764679063465,,NA,NA,simult,none,Graduated High-school,287708,1764679089553,1764678801845,lose,female,English,red,69256d84cc85ee6a4db820d0,692ed9cf4c33e2aae4c6ef5c,692d8c586749d81c3a9032e9,NA,NA,1,7,12151,green,conjunctive,1764679074112,12,critical
2067,30,NA,na,win,NA,NA,NA,Graduated College,314551,1764679946316,1764679631765,NA,male,english,blue,663d8f0edfd87b4c1f590b99,692edf7a5e2010e2de4b62de,692d8c586749d81c3a9032e9,win,NA,NA,NA,9463,yellow,disjunctive,NA,1,comprehension-1
2067,30,NA,na,win,NA,NA,NA,Graduated College,314551,1764679946316,1764679631765,NA,male,english,red,663d8f0edfd87b4c1f590b99,692edf7a5e2010e2de4b62de,692d8c586749d81c3a9032e9,win,NA,NA,NA,1641,yellow,disjunctive,NA,2,comprehension-1
2067,30,NA,na,win,NA,NA,NA,Graduated College,314551,1764679946316,1764679631765,NA,male,english,red,663d8f0edfd87b4c1f590b99,692edf7a5e2010e2de4b62de,692d8c586749d81c3a9032e9,win,NA,NA,NA,594,green,disjunctive,NA,3,comprehension-1
2067,30,NA,na,lose,NA,NA,NA,Graduated College,314551,1764679946316,1764679631765,NA,male,english,blue,663d8f0edfd87b4c1f590b99,692edf7a5e2010e2de4b62de,692d8c586749d81c3a9032e9,lose,NA,NA,NA,1264,green,disjunctive,NA,4,comprehension-1
2067,30,1764679763692,na,NA,Both balls were released at the same time,simult,none,Graduated College,314551,1764679946316,1764679631765,win,male,english,red,663d8f0edfd87b4c1f590b99,692edf7a5e2010e2de4b62de,692d8c586749d81c3a9032e9,NA,Both balls were released at the same time,NA,NA,7674,green,disjunctive,1764679770060,1,training-attention
2067,30,1764679763692,na,NA,Both balls were released at the same time,simult,none,Graduated College,314551,1764679946316,1764679631765,win,male,english,red,663d8f0edfd87b4c1f590b99,692edf7a5e2010e2de4b62de,692d8c586749d81c3a9032e9,NA,Both balls were released at the same time,7,1,12834,green,disjunctive,1764679775220,1,training
2067,30,1764679777070,na,NA,The blue ball,short,right,Graduated College,314551,1764679946316,1764679631765,lose,male,english,blue,663d8f0edfd87b4c1f590b99,692edf7a5e2010e2de4b62de,692d8c586749d81c3a9032e9,NA,The blue ball,NA,NA,8874,green,disjunctive,1764679784094,2,training-attention
2067,30,1764679777070,na,NA,The blue ball,short,right,Graduated College,314551,1764679946316,1764679631765,lose,male,english,blue,663d8f0edfd87b4c1f590b99,692edf7a5e2010e2de4b62de,692d8c586749d81c3a9032e9,NA,The blue ball,6,6,17502,green,disjunctive,1764679792722,2,training
2067,30,1764679795422,na,NA,NA,short,right,Graduated College,314551,1764679946316,1764679631765,lose,male,english,blue,663d8f0edfd87b4c1f590b99,692edf7a5e2010e2de4b62de,692d8c586749d81c3a9032e9,NA,NA,6,6,10902,green,disjunctive,1764679804906,1,critical
2067,30,1764679806124,na,NA,NA,short,right,Graduated College,314551,1764679946316,1764679631765,win,male,english,red,663d8f0edfd87b4c1f590b99,692edf7a5e2010e2de4b62de,692d8c586749d81c3a9032e9,NA,NA,7,1,11128,green,disjunctive,1764679816034,2,critical
2067,30,1764679817508,na,NA,The yellow ball,long,left,Graduated College,314551,1764679946316,1764679631765,win,male,english,blue,663d8f0edfd87b4c1f590b99,692edf7a5e2010e2de4b62de,692d8c586749d81c3a9032e9,NA,The yellow ball,NA,NA,13056,yellow,disjunctive,1764679829090,3,critical-attention
2067,30,1764679817508,na,NA,The yellow ball,long,left,Graduated College,314551,1764679946316,1764679631765,win,male,english,blue,663d8f0edfd87b4c1f590b99,692edf7a5e2010e2de4b62de,692d8c586749d81c3a9032e9,NA,The yellow ball,1,7,18192,yellow,disjunctive,1764679834226,3,critical
2067,30,1764679835892,na,NA,NA,long,left,Graduated College,314551,1764679946316,1764679631765,win,male,english,red,663d8f0edfd87b4c1f590b99,692edf7a5e2010e2de4b62de,692d8c586749d81c3a9032e9,NA,NA,7,1,15364,green,disjunctive,1764679849590,4,critical
2067,30,1764679850680,na,NA,NA,simult,none,Graduated College,314551,1764679946316,1764679631765,win,male,english,red,663d8f0edfd87b4c1f590b99,692edf7a5e2010e2de4b62de,692d8c586749d81c3a9032e9,NA,NA,7,7,9342,yellow,disjunctive,1764679858932,5,critical
2067,30,1764679860022,na,NA,Both balls were released at the same time,simult,none,Graduated College,314551,1764679946316,1764679631765,win,male,english,red,663d8f0edfd87b4c1f590b99,692edf7a5e2010e2de4b62de,692d8c586749d81c3a9032e9,NA,Both balls were released at the same time,NA,NA,5776,green,disjunctive,1764679864708,6,critical-attention
2067,30,1764679860022,na,NA,Both balls were released at the same time,simult,none,Graduated College,314551,1764679946316,1764679631765,win,male,english,red,663d8f0edfd87b4c1f590b99,692edf7a5e2010e2de4b62de,692d8c586749d81c3a9032e9,NA,Both balls were released at the same time,7,1,10678,green,disjunctive,1764679869610,6,critical
2067,30,1764679870940,na,NA,NA,simult,none,Graduated College,314551,1764679946316,1764679631765,lose,male,english,blue,663d8f0edfd87b4c1f590b99,692edf7a5e2010e2de4b62de,692d8c586749d81c3a9032e9,NA,NA,6,6,7418,green,disjunctive,1764679877028,7,critical
2067,30,1764679878132,na,NA,NA,simult,none,Graduated College,314551,1764679946316,1764679631765,win,male,english,blue,663d8f0edfd87b4c1f590b99,692edf7a5e2010e2de4b62de,692d8c586749d81c3a9032e9,NA,NA,1,7,7160,yellow,disjunctive,1764679884188,8,critical
2067,30,1764679885902,na,NA,The yellow ball,long,left,Graduated College,314551,1764679946316,1764679631765,win,male,english,red,663d8f0edfd87b4c1f590b99,692edf7a5e2010e2de4b62de,692d8c586749d81c3a9032e9,NA,The yellow ball,NA,NA,12070,yellow,disjunctive,1764679896258,9,critical-attention
2067,30,1764679885902,na,NA,The yellow ball,long,left,Graduated College,314551,1764679946316,1764679631765,win,male,english,red,663d8f0edfd87b4c1f590b99,692edf7a5e2010e2de4b62de,692d8c586749d81c3a9032e9,NA,The yellow ball,6,6,17060,yellow,disjunctive,1764679901248,9,critical
2067,30,1764679902570,na,NA,NA,short,right,Graduated College,314551,1764679946316,1764679631765,win,male,english,red,663d8f0edfd87b4c1f590b99,692edf7a5e2010e2de4b62de,692d8c586749d81c3a9032e9,NA,NA,6,6,9204,yellow,disjunctive,1764679910452,10,critical
2067,30,1764679911926,na,NA,NA,long,right,Graduated College,314551,1764679946316,1764679631765,lose,male,english,blue,663d8f0edfd87b4c1f590b99,692edf7a5e2010e2de4b62de,692d8c586749d81c3a9032e9,NA,NA,6,6,13314,green,disjunctive,1764679923766,11,critical
2067,30,1764679925040,na,NA,NA,short,right,Graduated College,314551,1764679946316,1764679631765,win,male,english,blue,663d8f0edfd87b4c1f590b99,692edf7a5e2010e2de4b62de,692d8c586749d81c3a9032e9,NA,NA,1,7,9526,yellow,disjunctive,1764679933292,12,critical
2053,40,NA,,lose,NA,NA,NA,Graduated High-school,424467,1764674094292,1764673669825,NA,male,English ,blue,5c8ba607c5366c0001d022cb,692ec87a3a3ad8025a926046,692d8c586749d81c3a9032e9,lose,NA,NA,NA,7718,green,conjunctive,NA,1,comprehension-1
2053,40,NA,,win,NA,NA,NA,Graduated High-school,424467,1764674094292,1764673669825,NA,male,English ,red,5c8ba607c5366c0001d022cb,692ec87a3a3ad8025a926046,692d8c586749d81c3a9032e9,win,NA,NA,NA,1097,yellow,conjunctive,NA,2,comprehension-1
2053,40,NA,,lose,NA,NA,NA,Graduated High-school,424467,1764674094292,1764673669825,NA,male,English ,blue,5c8ba607c5366c0001d022cb,692ec87a3a3ad8025a926046,692d8c586749d81c3a9032e9,lose,NA,NA,NA,1283,yellow,conjunctive,NA,3,comprehension-1
2053,40,NA,,lose,NA,NA,NA,Graduated High-school,424467,1764674094292,1764673669825,NA,male,English ,red,5c8ba607c5366c0001d022cb,692ec87a3a3ad8025a926046,692d8c586749d81c3a9032e9,lose,NA,NA,NA,1064,green,conjunctive,NA,4,comprehension-1
2053,40,1764673793616,,NA,Both balls were released at the same time,simult,none,Graduated High-school,424467,1764674094292,1764673669825,win,male,English ,red,5c8ba607c5366c0001d022cb,692ec87a3a3ad8025a926046,692d8c586749d81c3a9032e9,NA,The red ball,NA,NA,11632,yellow,conjunctive,1764673802281,1,training-attention
2053,40,1764673793616,,NA,Both balls were released at the same time,simult,none,Graduated High-school,424467,1764674094292,1764673669825,win,male,English ,red,5c8ba607c5366c0001d022cb,692ec87a3a3ad8025a926046,692d8c586749d81c3a9032e9,NA,The red ball,7,7,30015,yellow,conjunctive,1764673820664,1,training
2053,40,1764673823593,,NA,The blue ball,short,right,Graduated High-school,424467,1764674094292,1764673669825,lose,male,English ,blue,5c8ba607c5366c0001d022cb,692ec87a3a3ad8025a926046,692d8c586749d81c3a9032e9,NA,The blue ball,NA,NA,12580,yellow,conjunctive,1764673833244,2,training-attention
2053,40,1764673823593,,NA,The blue ball,short,right,Graduated High-school,424467,1764674094292,1764673669825,lose,male,English ,blue,5c8ba607c5366c0001d022cb,692ec87a3a3ad8025a926046,692d8c586749d81c3a9032e9,NA,The blue ball,7,1,21562,yellow,conjunctive,1764673842226,2,training
2053,40,1764673862725,,NA,NA,simult,none,Graduated High-school,424467,1764674094292,1764673669825,lose,male,English ,blue,5c8ba607c5366c0001d022cb,692ec87a3a3ad8025a926046,692d8c586749d81c3a9032e9,NA,NA,7,7,13833,green,conjunctive,1764673874525,1,critical
2053,40,1764673876272,,NA,NA,long,right,Graduated High-school,424467,1764674094292,1764673669825,lose,male,English ,red,5c8ba607c5366c0001d022cb,692ec87a3a3ad8025a926046,692d8c586749d81c3a9032e9,NA,NA,1,7,23945,green,conjunctive,1764673898470,2,critical
2053,40,1764673900387,,NA,The blue ball,short,right,Graduated High-school,424467,1764674094292,1764673669825,lose,male,English ,blue,5c8ba607c5366c0001d022cb,692ec87a3a3ad8025a926046,692d8c586749d81c3a9032e9,NA,The blue ball,NA,NA,12982,green,conjunctive,1764673911453,3,critical-attention
2053,40,1764673900387,,NA,The blue ball,short,right,Graduated High-school,424467,1764674094292,1764673669825,lose,male,English ,blue,5c8ba607c5366c0001d022cb,692ec87a3a3ad8025a926046,692d8c586749d81c3a9032e9,NA,The blue ball,7,7,17898,green,conjunctive,1764673916369,3,critical
2053,40,1764673918069,,NA,NA,long,right,Graduated High-school,424467,1764674094292,1764673669825,win,male,English ,red,5c8ba607c5366c0001d022cb,692ec87a3a3ad8025a926046,692d8c586749d81c3a9032e9,NA,NA,7,7,15416,yellow,conjunctive,1764673931785,4,critical
2053,40,1764673953750,,NA,NA,simult,none,Graduated High-school,424467,1764674094292,1764673669825,lose,male,English ,blue,5c8ba607c5366c0001d022cb,692ec87a3a3ad8025a926046,692d8c586749d81c3a9032e9,NA,NA,7,1,30313,yellow,conjunctive,1764673962098,5,critical
2053,40,1764673963480,,NA,The yellow ball,short,left,Graduated High-school,424467,1764674094292,1764673669825,win,male,English ,red,5c8ba607c5366c0001d022cb,692ec87a3a3ad8025a926046,692d8c586749d81c3a9032e9,NA,The yellow ball,NA,NA,9184,yellow,conjunctive,1764673971282,6,critical-attention
2053,40,1764673963480,,NA,The yellow ball,short,left,Graduated High-school,424467,1764674094292,1764673669825,win,male,English ,red,5c8ba607c5366c0001d022cb,692ec87a3a3ad8025a926046,692d8c586749d81c3a9032e9,NA,The yellow ball,7,7,15833,yellow,conjunctive,1764673977931,6,critical
2053,40,1764673979245,,NA,NA,long,right,Graduated High-school,424467,1764674094292,1764673669825,lose,male,English ,blue,5c8ba607c5366c0001d022cb,692ec87a3a3ad8025a926046,692d8c586749d81c3a9032e9,NA,NA,7,1,16863,yellow,conjunctive,1764673994794,7,critical
2053,40,1764673996061,,NA,NA,short,right,Graduated High-school,424467,1764674094292,1764673669825,lose,male,English ,red,5c8ba607c5366c0001d022cb,692ec87a3a3ad8025a926046,692d8c586749d81c3a9032e9,NA,NA,1,7,11666,green,conjunctive,1764674006460,8,critical
2053,40,1764674007743,,NA,Both balls were released at the same time,simult,none,Graduated High-school,424467,1764674094292,1764673669825,win,male,English ,red,5c8ba607c5366c0001d022cb,692ec87a3a3ad8025a926046,692d8c586749d81c3a9032e9,NA,Both balls were released at the same time,NA,NA,7832,yellow,conjunctive,1764674014292,9,critical-attention
2053,40,1764674007743,,NA,Both balls were released at the same time,simult,none,Graduated High-school,424467,1764674094292,1764673669825,win,male,English ,red,5c8ba607c5366c0001d022cb,692ec87a3a3ad8025a926046,692d8c586749d81c3a9032e9,NA,Both balls were released at the same time,7,7,12111,yellow,conjunctive,1764674018571,9,critical
2053,40,1764674046869,,NA,NA,long,left,Graduated High-school,424467,1764674094292,1764673669825,lose,male,English ,blue,5c8ba607c5366c0001d022cb,692ec87a3a3ad8025a926046,692d8c586749d81c3a9032e9,NA,NA,7,7,43550,green,conjunctive,1764674062121,10,critical
2053,40,1764674063455,,NA,NA,short,left,Graduated High-school,424467,1764674094292,1764673669825,lose,male,English ,blue,5c8ba607c5366c0001d022cb,692ec87a3a3ad8025a926046,692d8c586749d81c3a9032e9,NA,NA,7,1,9765,yellow,conjunctive,1764674071886,11,critical
2053,40,1764674073434,,NA,NA,simult,none,Graduated High-school,424467,1764674094292,1764673669825,lose,male,English ,red,5c8ba607c5366c0001d022cb,692ec87a3a3ad8025a926046,692d8c586749d81c3a9032e9,NA,NA,1,7,8266,green,conjunctive,1764674080152,12,critical
2054,43,NA,nothing to add,lose,NA,NA,NA,Graduated High-school,414605,1764674204198,1764673789593,NA,male,english,red,677c455afc1062faab5b165e,692ec8f8bc94581a0f773f6a,692d8c586749d81c3a9032e9,lose,NA,NA,NA,12372,green,conjunctive,NA,1,comprehension-1
2054,43,NA,nothing to add,lose,NA,NA,NA,Graduated High-school,414605,1764674204198,1764673789593,NA,male,english,blue,677c455afc1062faab5b165e,692ec8f8bc94581a0f773f6a,692d8c586749d81c3a9032e9,lose,NA,NA,NA,3772,green,conjunctive,NA,2,comprehension-1
2054,43,NA,nothing to add,lose,NA,NA,NA,Graduated High-school,414605,1764674204198,1764673789593,NA,male,english,blue,677c455afc1062faab5b165e,692ec8f8bc94581a0f773f6a,692d8c586749d81c3a9032e9,lose,NA,NA,NA,1713,yellow,conjunctive,NA,3,comprehension-1
2054,43,NA,nothing to add,win,NA,NA,NA,Graduated High-school,414605,1764674204198,1764673789593,NA,male,english,red,677c455afc1062faab5b165e,692ec8f8bc94581a0f773f6a,692d8c586749d81c3a9032e9,win,NA,NA,NA,1206,yellow,conjunctive,NA,4,comprehension-1
2054,43,1764673914311,nothing to add,NA,Both balls were released at the same time,simult,none,Graduated High-school,414605,1764674204198,1764673789593,win,male,english,red,677c455afc1062faab5b165e,692ec8f8bc94581a0f773f6a,692d8c586749d81c3a9032e9,NA,Both balls were released at the same time,NA,NA,13549,yellow,conjunctive,1764673923703,1,training-attention
2054,43,1764673914311,nothing to add,NA,Both balls were released at the same time,simult,none,Graduated High-school,414605,1764674204198,1764673789593,win,male,english,red,677c455afc1062faab5b165e,692ec8f8bc94581a0f773f6a,692d8c586749d81c3a9032e9,NA,Both balls were released at the same time,7,7,36054,yellow,conjunctive,1764673946208,1,training
2054,43,1764673948600,nothing to add,NA,The yellow ball,short,left,Graduated High-school,414605,1764674204198,1764673789593,lose,male,english,blue,677c455afc1062faab5b165e,692ec8f8bc94581a0f773f6a,692d8c586749d81c3a9032e9,NA,The yellow ball,NA,NA,11746,yellow,conjunctive,1764673957954,2,training-attention
2054,43,1764673948600,nothing to add,NA,The yellow ball,short,left,Graduated High-school,414605,1764674204198,1764673789593,lose,male,english,blue,677c455afc1062faab5b165e,692ec8f8bc94581a0f773f6a,692d8c586749d81c3a9032e9,NA,The yellow ball,7,1,36943,yellow,conjunctive,1764673983151,2,training
2054,43,1764673987455,nothing to add,NA,NA,simult,none,Graduated High-school,414605,1764674204198,1764673789593,lose,male,english,blue,677c455afc1062faab5b165e,692ec8f8bc94581a0f773f6a,692d8c586749d81c3a9032e9,NA,NA,7,7,18232,green,conjunctive,1764674002678,1,critical
2054,43,1764674004345,nothing to add,NA,NA,simult,none,Graduated High-school,414605,1764674204198,1764673789593,lose,male,english,red,677c455afc1062faab5b165e,692ec8f8bc94581a0f773f6a,692d8c586749d81c3a9032e9,NA,NA,1,7,15149,green,conjunctive,1764674017827,2,critical
2054,43,1764674019169,nothing to add,NA,The green ball,short,left,Graduated High-school,414605,1764674204198,1764673789593,lose,male,english,red,677c455afc1062faab5b165e,692ec8f8bc94581a0f773f6a,692d8c586749d81c3a9032e9,NA,The green ball,NA,NA,7875,green,conjunctive,1764674025702,3,critical-attention
2054,43,1764674019169,nothing to add,NA,The green ball,short,left,Graduated High-school,414605,1764674204198,1764673789593,lose,male,english,red,677c455afc1062faab5b165e,692ec8f8bc94581a0f773f6a,692d8c586749d81c3a9032e9,NA,The green ball,1,7,14955,green,conjunctive,1764674032782,3,critical
2054,43,1764674034483,nothing to add,NA,NA,long,right,Graduated High-school,414605,1764674204198,1764673789593,lose,male,english,blue,677c455afc1062faab5b165e,692ec8f8bc94581a0f773f6a,692d8c586749d81c3a9032e9,NA,NA,7,2,31494,green,conjunctive,1764674064276,4,critical
2054,43,1764674065435,nothing to add,NA,NA,long,right,Graduated High-school,414605,1764674204198,1764673789593,win,male,english,red,677c455afc1062faab5b165e,692ec8f8bc94581a0f773f6a,692d8c586749d81c3a9032e9,NA,NA,6,7,21400,yellow,conjunctive,1764674085676,5,critical
2054,43,1764674087193,nothing to add,NA,Both balls were released at the same time,simult,none,Graduated High-school,414605,1764674204198,1764673789593,lose,male,english,blue,677c455afc1062faab5b165e,692ec8f8bc94581a0f773f6a,692d8c586749d81c3a9032e9,NA,Both balls were released at the same time,NA,NA,6229,yellow,conjunctive,1764674091905,6,critical-attention
2054,43,1764674087193,nothing to add,NA,Both balls were released at the same time,simult,none,Graduated High-school,414605,1764674204198,1764673789593,lose,male,english,blue,677c455afc1062faab5b165e,692ec8f8bc94581a0f773f6a,692d8c586749d81c3a9032e9,NA,Both balls were released at the same time,7,2,12985,yellow,conjunctive,1764674098661,6,critical
2054,43,1764674099782,nothing to add,NA,NA,short,right,Graduated High-school,414605,1764674204198,1764673789593,win,male,english,red,677c455afc1062faab5b165e,692ec8f8bc94581a0f773f6a,692d8c586749d81c3a9032e9,NA,NA,5,7,17724,yellow,conjunctive,1764674116385,7,critical
2054,43,1764674117592,nothing to add,NA,NA,short,left,Graduated High-school,414605,1764674204198,1764673789593,lose,male,english,blue,677c455afc1062faab5b165e,692ec8f8bc94581a0f773f6a,692d8c586749d81c3a9032e9,NA,NA,7,1,11334,yellow,conjunctive,1764674127719,8,critical
2054,43,1764674128892,nothing to add,NA,Both balls were released at the same time,simult,none,Graduated High-school,414605,1764674204198,1764673789593,win,male,english,red,677c455afc1062faab5b165e,692ec8f8bc94581a0f773f6a,692d8c586749d81c3a9032e9,NA,Both balls were released at the same time,NA,NA,5503,yellow,conjunctive,1764674133222,9,critical-attention
2054,43,1764674128892,nothing to add,NA,Both balls were released at the same time,simult,none,Graduated High-school,414605,1764674204198,1764673789593,win,male,english,red,677c455afc1062faab5b165e,692ec8f8bc94581a0f773f6a,692d8c586749d81c3a9032e9,NA,Both balls were released at the same time,5,7,13862,yellow,conjunctive,1764674141581,9,critical
2054,43,1764674142714,nothing to add,NA,NA,long,right,Graduated High-school,414605,1764674204198,1764673789593,lose,male,english,red,677c455afc1062faab5b165e,692ec8f8bc94581a0f773f6a,692d8c586749d81c3a9032e9,NA,NA,1,7,16022,green,conjunctive,1764674157603,10,critical
2054,43,1764674158671,nothing to add,NA,NA,long,left,Graduated High-school,414605,1764674204198,1764673789593,lose,male,english,blue,677c455afc1062faab5b165e,692ec8f8bc94581a0f773f6a,692d8c586749d81c3a9032e9,NA,NA,7,1,20593,yellow,conjunctive,1764674178196,11,critical
2054,43,1764674179369,nothing to add,NA,NA,short,right,Graduated High-school,414605,1764674204198,1764673789593,lose,male,english,blue,677c455afc1062faab5b165e,692ec8f8bc94581a0f773f6a,692d8c586749d81c3a9032e9,NA,NA,7,2,10823,green,conjunctive,1764674189019,12,critical
2055,61,NA,"Very interesting and enjoyable, thank you",lose,NA,NA,NA,Graduated High-school,442024,1764674268377,1764673826353,NA,male,English,blue,63c80a427dfa1305502df5a8,692ec91ce0d0d2f7bd3b2e8b,692d8c586749d81c3a9032e9,lose,NA,NA,NA,12391,green,disjunctive,NA,1,comprehension-1
2055,61,NA,"Very interesting and enjoyable, thank you",win,NA,NA,NA,Graduated High-school,442024,1764674268377,1764673826353,NA,male,English,blue,63c80a427dfa1305502df5a8,692ec91ce0d0d2f7bd3b2e8b,692d8c586749d81c3a9032e9,win,NA,NA,NA,2315,yellow,disjunctive,NA,2,comprehension-1
2055,61,NA,"Very interesting and enjoyable, thank you",win,NA,NA,NA,Graduated High-school,442024,1764674268377,1764673826353,NA,male,English,red,63c80a427dfa1305502df5a8,692ec91ce0d0d2f7bd3b2e8b,692d8c586749d81c3a9032e9,win,NA,NA,NA,1206,green,disjunctive,NA,3,comprehension-1
2055,61,NA,"Very interesting and enjoyable, thank you",win,NA,NA,NA,Graduated High-school,442024,1764674268377,1764673826353,NA,male,English,red,63c80a427dfa1305502df5a8,692ec91ce0d0d2f7bd3b2e8b,692d8c586749d81c3a9032e9,win,NA,NA,NA,1452,yellow,disjunctive,NA,4,comprehension-1
2055,61,1764673932988,"Very interesting and enjoyable, thank you",NA,Both balls were released at the same time,simult,none,Graduated High-school,442024,1764674268377,1764673826353,win,male,English,red,63c80a427dfa1305502df5a8,692ec91ce0d0d2f7bd3b2e8b,692d8c586749d81c3a9032e9,NA,Both balls were released at the same time,NA,NA,21864,green,disjunctive,1764673949799,1,training-attention
2055,61,1764673932988,"Very interesting and enjoyable, thank you",NA,Both balls were released at the same time,simult,none,Graduated High-school,442024,1764674268377,1764673826353,win,male,English,red,63c80a427dfa1305502df5a8,692ec91ce0d0d2f7bd3b2e8b,692d8c586749d81c3a9032e9,NA,Both balls were released at the same time,7,1,34599,green,disjunctive,1764673962534,1,training
2055,61,1764673967270,"Very interesting and enjoyable, thank you",NA,The green ball,short,left,Graduated High-school,442024,1764674268377,1764673826353,lose,male,English,blue,63c80a427dfa1305502df5a8,692ec91ce0d0d2f7bd3b2e8b,692d8c586749d81c3a9032e9,NA,The green ball,NA,NA,12736,green,disjunctive,1764673975271,2,training-attention
2055,61,1764673967270,"Very interesting and enjoyable, thank you",NA,The green ball,short,left,Graduated High-school,442024,1764674268377,1764673826353,lose,male,English,blue,63c80a427dfa1305502df5a8,692ec91ce0d0d2f7bd3b2e8b,692d8c586749d81c3a9032e9,NA,The green ball,7,7,21576,green,disjunctive,1764673984111,2,training
2055,61,1764673990357,"Very interesting and enjoyable, thank you",NA,NA,long,right,Graduated High-school,442024,1764674268377,1764673826353,win,male,English,red,63c80a427dfa1305502df5a8,692ec91ce0d0d2f7bd3b2e8b,692d8c586749d81c3a9032e9,NA,NA,7,4,43414,yellow,disjunctive,1764674030122,1,critical
2055,61,1764674032206,"Very interesting and enjoyable, thank you",NA,NA,short,left,Graduated High-school,442024,1764674268377,1764673826353,win,male,English,blue,63c80a427dfa1305502df5a8,692ec91ce0d0d2f7bd3b2e8b,692d8c586749d81c3a9032e9,NA,NA,1,7,16616,yellow,disjunctive,1764674046738,2,critical
2055,61,1764674048879,"Very interesting and enjoyable, thank you",NA,The red ball,short,right,Graduated High-school,442024,1764674268377,1764673826353,win,male,English,red,63c80a427dfa1305502df5a8,692ec91ce0d0d2f7bd3b2e8b,692d8c586749d81c3a9032e9,NA,The red ball,NA,NA,10365,green,disjunctive,1764674057104,3,critical-attention
2055,61,1764674048879,"Very interesting and enjoyable, thank you",NA,The red ball,short,right,Graduated High-school,442024,1764674268377,1764673826353,win,male,English,red,63c80a427dfa1305502df5a8,692ec91ce0d0d2f7bd3b2e8b,692d8c586749d81c3a9032e9,NA,The red ball,7,1,18105,green,disjunctive,1764674064844,3,critical
2055,61,1764674067040,"Very interesting and enjoyable, thank you",NA,NA,long,right,Graduated High-school,442024,1764674268377,1764673826353,lose,male,English,blue,63c80a427dfa1305502df5a8,692ec91ce0d0d2f7bd3b2e8b,692d8c586749d81c3a9032e9,NA,NA,7,4,24567,green,disjunctive,1764674089411,4,critical
2055,61,1764674091735,"Very interesting and enjoyable, thank you",NA,NA,long,right,Graduated High-school,442024,1764674268377,1764673826353,win,male,English,red,63c80a427dfa1305502df5a8,692ec91ce0d0d2f7bd3b2e8b,692d8c586749d81c3a9032e9,NA,NA,7,1,20030,green,disjunctive,1764674109441,5,critical
2055,61,1764674111385,"Very interesting and enjoyable, thank you",NA,The blue ball,short,right,Graduated High-school,442024,1764674268377,1764673826353,lose,male,English,blue,63c80a427dfa1305502df5a8,692ec91ce0d0d2f7bd3b2e8b,692d8c586749d81c3a9032e9,NA,The blue ball,NA,NA,9740,green,disjunctive,1764674119181,6,critical-attention
2055,61,1764674111385,"Very interesting and enjoyable, thank you",NA,The blue ball,short,right,Graduated High-school,442024,1764674268377,1764673826353,lose,male,English,blue,63c80a427dfa1305502df5a8,692ec91ce0d0d2f7bd3b2e8b,692d8c586749d81c3a9032e9,NA,The blue ball,7,4,19087,green,disjunctive,1764674128528,6,critical
2055,61,1764674130381,"Very interesting and enjoyable, thank you",NA,NA,simult,none,Graduated High-school,442024,1764674268377,1764673826353,win,male,English,red,63c80a427dfa1305502df5a8,692ec91ce0d0d2f7bd3b2e8b,692d8c586749d81c3a9032e9,NA,NA,7,7,13369,yellow,disjunctive,1764674141897,7,critical
2055,61,1764674143807,"Very interesting and enjoyable, thank you",NA,NA,simult,none,Graduated High-school,442024,1764674268377,1764673826353,win,male,English,red,63c80a427dfa1305502df5a8,692ec91ce0d0d2f7bd3b2e8b,692d8c586749d81c3a9032e9,NA,NA,4,1,19560,green,disjunctive,1764674161457,8,critical
2055,61,1764674163274,"Very interesting and enjoyable, thank you",NA,The red ball,short,right,Graduated High-school,442024,1764674268377,1764673826353,win,male,English,red,63c80a427dfa1305502df5a8,692ec91ce0d0d2f7bd3b2e8b,692d8c586749d81c3a9032e9,NA,The red ball,NA,NA,8842,yellow,disjunctive,1764674170299,9,critical-attention
2055,61,1764674163274,"Very interesting and enjoyable, thank you",NA,The red ball,short,right,Graduated High-school,442024,1764674268377,1764673826353,win,male,English,red,63c80a427dfa1305502df5a8,692ec91ce0d0d2f7bd3b2e8b,692d8c586749d81c3a9032e9,NA,The red ball,7,4,16626,yellow,disjunctive,1764674178083,9,critical
2055,61,1764674180063,"Very interesting and enjoyable, thank you",NA,NA,long,right,Graduated High-school,442024,1764674268377,1764673826353,win,male,English,blue,63c80a427dfa1305502df5a8,692ec91ce0d0d2f7bd3b2e8b,692d8c586749d81c3a9032e9,NA,NA,1,7,23327,yellow,disjunctive,1764674201410,10,critical
2055,61,1764674203269,"Very interesting and enjoyable, thank you",NA,NA,simult,none,Graduated High-school,442024,1764674268377,1764673826353,win,male,English,blue,63c80a427dfa1305502df5a8,692ec91ce0d0d2f7bd3b2e8b,692d8c586749d81c3a9032e9,NA,NA,1,7,20051,yellow,disjunctive,1764674221461,11,critical
2055,61,1764674223145,"Very interesting and enjoyable, thank you",NA,NA,simult,none,Graduated High-school,442024,1764674268377,1764673826353,lose,male,English,blue,63c80a427dfa1305502df5a8,692ec91ce0d0d2f7bd3b2e8b,692d8c586749d81c3a9032e9,NA,NA,7,7,12456,green,disjunctive,1764674233917,12,critical
